TimeStamp,empatica.acc.x,empatica.acc.y,empatica.acc.z,empatica.hr,empatica.bvp,empatica.eda,empatica.temp
2021-06-23 15:29:33.000000000,49.0,-24.0,7.0,117.95,138.25,0.078414,32.16
2021-06-23 15:29:33.007812500,48.0,-26.5,5.75,117.94570312500001,138.815,0.078253875,32.16
2021-06-23 15:29:33.015625000,47.0,-29.0,4.5,117.94140625,139.38,0.07809375,32.16
2021-06-23 15:29:33.023437500,46.0,-31.5,3.25,117.937109375,137.905,0.07793362499999999,32.16
2021-06-23 15:29:33.031250000,45.0,-34.0,2.0,117.9328125,136.43,0.0777735,32.16
2021-06-23 15:29:33.039062500,45.75,-34.25,0.5,117.928515625,133.005,0.077613375,32.16
2021-06-23 15:29:33.046875000,46.5,-34.5,-1.0,117.92421875000001,129.58,0.07745325,32.16
2021-06-23 15:29:33.054687500,47.25,-34.75,-2.5,117.919921875,124.61000000000001,0.07729312499999999,32.16
2021-06-23 15:29:33.062500000,48.0,-35.0,-4.0,117.915625,119.64,0.077133,32.16
2021-06-23 15:29:33.070312500,48.75,-34.25,-2.75,117.911328125,113.705,0.076972875,32.16
2021-06-23 15:29:33.078125000,49.5,-33.5,-1.5,117.90703125,107.77,0.07681275,32.16
2021-06-23 15:29:33.085937500,50.25,-32.75,-0.25,117.90273437500001,101.315,0.076652625,32.16
2021-06-23 15:29:33.093750000,51.0,-32.0,1.0,117.8984375,94.86,0.07649249999999999,32.16
2021-06-23 15:29:33.101562500,53.0,-31.25,3.0,117.894140625,87.97999999999999,0.076332375,32.16
2021-06-23 15:29:33.109375000,55.0,-30.5,5.0,117.88984375,81.1,0.07617225,32.16
2021-06-23 15:29:33.117187500,57.0,-29.75,7.0,117.885546875,73.52,0.076012125,32.16
2021-06-23 15:29:33.125000000,59.0,-29.0,9.0,117.88125000000001,65.94,0.075852,32.16
2021-06-23 15:29:33.132812500,58.5,-27.0,7.75,117.876953125,57.09,0.07569187499999999,32.16
2021-06-23 15:29:33.140625000,58.0,-25.0,6.5,117.87265625,48.24,0.07553175,32.16
2021-06-23 15:29:33.148437500,57.5,-23.0,5.25,117.868359375,37.57,0.075371625,32.16
2021-06-23 15:29:33.156250000,57.0,-21.0,4.0,117.8640625,26.9,0.0752115,32.16
2021-06-23 15:29:33.164062500,61.5,-20.25,5.0,117.85976562500001,14.245,0.07505137499999999,32.16
2021-06-23 15:29:33.171875000,66.0,-19.5,6.0,117.85546875,1.59,0.07489124999999999,32.16
2021-06-23 15:29:33.179687500,70.5,-18.75,7.0,117.851171875,-12.92,0.074731125,32.16
2021-06-23 15:29:33.187500000,75.0,-18.0,8.0,117.846875,-27.43,0.074571,32.16
2021-06-23 15:29:33.195312500,73.75,-15.5,7.75,117.842578125,-43.06,0.07441087499999999,32.16
2021-06-23 15:29:33.203125000,72.5,-13.0,7.5,117.83828125000001,-58.69,0.07425074999999999,32.16
2021-06-23 15:29:33.210937500,71.25,-10.5,7.25,117.833984375,-74.39,0.074090625,32.16
2021-06-23 15:29:33.218750000,70.0,-8.0,7.0,117.8296875,-90.09,0.0739305,32.16
2021-06-23 15:29:33.226562500,70.5,-8.5,7.75,117.825390625,-104.92500000000001,0.073770375,32.16
2021-06-23 15:29:33.234375000,71.0,-9.0,8.5,117.82109375,-119.76,0.07361024999999999,32.16
2021-06-23 15:29:33.242187500,71.5,-9.5,9.25,117.81679687500001,-133.27,0.07345012499999999,32.16
2021-06-23 15:29:33.250000000,72.0,-10.0,10.0,117.8125,-146.78,0.07329,32.16
2021-06-23 15:29:33.257812500,72.75,-8.75,11.75,117.808203125,-159.01,0.07308981249999999,32.16
2021-06-23 15:29:33.265625000,73.5,-7.5,13.5,117.80390625,-171.24,0.072889625,32.16
2021-06-23 15:29:33.273437500,74.25,-6.25,15.25,117.799609375,-182.685,0.0726894375,32.16
2021-06-23 15:29:33.281250000,75.0,-5.0,17.0,117.79531250000001,-194.13,0.07248924999999999,32.16
2021-06-23 15:29:33.289062500,74.75,-6.0,15.75,117.791015625,-205.485,0.0722890625,32.16
2021-06-23 15:29:33.296875000,74.5,-7.0,14.5,117.78671875,-216.84,0.072088875,32.16
2021-06-23 15:29:33.304687500,74.25,-8.0,13.25,117.782421875,-228.81,0.07188868749999999,32.16
2021-06-23 15:29:33.312500000,74.0,-9.0,12.0,117.778125,-240.78,0.07168849999999999,32.16
2021-06-23 15:29:33.320312500,73.5,-8.75,13.0,117.77382812500001,-254.12,0.0714883125,32.16
2021-06-23 15:29:33.328125000,73.0,-8.5,14.0,117.76953125,-267.46,0.071288125,32.16
2021-06-23 15:29:33.335937500,72.5,-8.25,15.0,117.765234375,-282.355,0.07108793749999999,32.16
2021-06-23 15:29:33.343750000,72.0,-8.0,16.0,117.7609375,-297.25,0.07088775,32.16
2021-06-23 15:29:33.351562500,68.5,-7.5,15.25,117.756640625,-313.005,0.0706875625,32.16
2021-06-23 15:29:33.359375000,65.0,-7.0,14.5,117.75234375000001,-328.76,0.07048737499999999,32.16
2021-06-23 15:29:33.367187500,61.5,-6.5,13.75,117.748046875,-343.5,0.0702871875,32.16
2021-06-23 15:29:33.375000000,58.0,-6.0,13.0,117.74375,-358.24,0.070087,32.16
2021-06-23 15:29:33.382812500,58.0,-6.25,12.5,117.739453125,-369.07,0.06988681249999999,32.16
2021-06-23 15:29:33.390625000,58.0,-6.5,12.0,117.73515625,-379.9,0.069686625,32.16
2021-06-23 15:29:33.398437500,58.0,-6.75,11.5,117.73085937500001,-383.53,0.0694864375,32.16
2021-06-23 15:29:33.406250000,58.0,-7.0,11.0,117.7265625,-387.16,0.06928625,32.16
2021-06-23 15:29:33.414062500,60.0,-6.0,11.25,117.722265625,-381.0,0.0690860625,32.16
2021-06-23 15:29:33.421875000,62.0,-5.0,11.5,117.71796875,-374.84,0.068885875,32.16
2021-06-23 15:29:33.429687500,64.0,-4.0,11.75,117.713671875,-358.03,0.0686856875,32.16
2021-06-23 15:29:33.437500000,66.0,-3.0,12.0,117.70937500000001,-341.22,0.0684855,32.16
2021-06-23 15:29:33.445312500,67.0,-4.0,11.0,117.705078125,-315.1,0.0682853125,32.16
2021-06-23 15:29:33.453125000,68.0,-5.0,10.0,117.70078125,-288.98,0.068085125,32.16
2021-06-23 15:29:33.460937500,69.0,-6.0,9.0,117.696484375,-256.9,0.06788493749999999,32.16
2021-06-23 15:29:33.468750000,70.0,-7.0,8.0,117.6921875,-224.82,0.06768475,32.16
2021-06-23 15:29:33.476562500,69.75,-6.75,8.0,117.68789062500001,-190.975,0.0674845625,32.16
2021-06-23 15:29:33.484375000,69.5,-6.5,8.0,117.68359375,-157.13,0.067284375,32.16
2021-06-23 15:29:33.492187500,69.25,-6.25,8.0,117.679296875,-125.46000000000001,0.0670841875,32.16
2021-06-23 15:29:33.500000000,69.0,-6.0,8.0,117.67500000000001,-93.79,0.066884,32.16
2021-06-23 15:29:33.507812500,68.0,-5.75,8.0,117.670703125,-67.33,0.066884,32.16
2021-06-23 15:29:33.515625000,67.0,-5.5,8.0,117.66640625000001,-40.87,0.066884,32.16
2021-06-23 15:29:33.523437500,66.0,-5.25,8.0,117.662109375,-21.599999999999998,0.066884,32.16
2021-06-23 15:29:33.531250000,65.0,-5.0,8.0,117.6578125,-2.33,0.066884,32.16
2021-06-23 15:29:33.539062500,63.5,-5.75,7.5,117.65351562500001,8.62,0.066884,32.16
2021-06-23 15:29:33.546875000,62.0,-6.5,7.0,117.64921875,19.57,0.066884,32.16
2021-06-23 15:29:33.554687500,60.5,-7.25,6.5,117.64492187500001,21.755000000000003,0.066884,32.16
2021-06-23 15:29:33.562500000,59.0,-8.0,6.0,117.640625,23.94,0.066884,32.16
2021-06-23 15:29:33.570312500,61.0,-8.0,6.25,117.636328125,17.855,0.066884,32.16
2021-06-23 15:29:33.578125000,63.0,-8.0,6.5,117.63203125000001,11.77,0.066884,32.16
2021-06-23 15:29:33.585937500,65.0,-8.0,6.75,117.627734375,-0.8100000000000005,0.066884,32.16
2021-06-23 15:29:33.593750000,67.0,-8.0,7.0,117.62343750000001,-13.39,0.066884,32.16
2021-06-23 15:29:33.601562500,65.5,-7.5,7.0,117.619140625,-29.395,0.066884,32.16
2021-06-23 15:29:33.609375000,64.0,-7.0,7.0,117.61484375,-45.4,0.066884,32.16
2021-06-23 15:29:33.617187500,62.5,-6.5,7.0,117.61054687500001,-60.879999999999995,0.066884,32.16
2021-06-23 15:29:33.625000000,61.0,-6.0,7.0,117.60625,-76.36,0.066884,32.16
2021-06-23 15:29:33.632812500,61.25,-5.75,6.75,117.60195312500001,-87.57,0.066884,32.16
2021-06-23 15:29:33.640625000,61.5,-5.5,6.5,117.59765625,-98.78,0.066884,32.16
2021-06-23 15:29:33.648437500,61.75,-5.25,6.25,117.593359375,-103.3,0.066884,32.16
2021-06-23 15:29:33.656250000,62.0,-5.0,6.0,117.58906250000001,-107.82,0.066884,32.16
2021-06-23 15:29:33.664062500,62.25,-4.75,6.5,117.584765625,-105.125,0.066884,32.16
2021-06-23 15:29:33.671875000,62.5,-4.5,7.0,117.58046875000001,-102.43,0.066884,32.16
2021-06-23 15:29:33.679687500,62.75,-4.25,7.5,117.576171875,-93.745,0.066884,32.16
2021-06-23 15:29:33.687500000,63.0,-4.0,8.0,117.571875,-85.06,0.066884,32.16
2021-06-23 15:29:33.695312500,62.5,-4.5,7.5,117.56757812500001,-72.725,0.066884,32.16
2021-06-23 15:29:33.703125000,62.0,-5.0,7.0,117.56328125,-60.39,0.066884,32.16
2021-06-23 15:29:33.710937500,61.5,-5.5,6.5,117.55898437500001,-47.085,0.066884,32.16
2021-06-23 15:29:33.718750000,61.0,-6.0,6.0,117.5546875,-33.78,0.066884,32.16
2021-06-23 15:29:33.726562500,60.75,-6.25,5.25,117.550390625,-21.97,0.066884,32.16
2021-06-23 15:29:33.734375000,60.5,-6.5,4.5,117.54609375000001,-10.16,0.066884,32.16
2021-06-23 15:29:33.742187500,60.25,-6.75,3.75,117.541796875,-1.7300000000000004,0.066884,32.16
2021-06-23 15:29:33.750000000,60.0,-7.0,3.0,117.53750000000001,6.7,0.066884,32.16
2021-06-23 15:29:33.757812500,61.0,-6.75,3.25,117.533203125,10.875,0.06664378125,32.16
2021-06-23 15:29:33.765625000,62.0,-6.5,3.5,117.52890625,15.05,0.0664035625,32.16
2021-06-23 15:29:33.773437500,63.0,-6.25,3.75,117.52460937500001,15.530000000000001,0.06616334374999999,32.16
2021-06-23 15:29:33.781250000,64.0,-6.0,4.0,117.5203125,16.01,0.065923125,32.16
2021-06-23 15:29:33.789062500,63.75,-6.25,4.0,117.51601562500001,14.925,0.06568290625,32.16
2021-06-23 15:29:33.796875000,63.5,-6.5,4.0,117.51171875,13.84,0.0654426875,32.16
2021-06-23 15:29:33.804687500,63.25,-6.75,4.0,117.507421875,14.365,0.06520246874999999,32.16
2021-06-23 15:29:33.812500000,63.0,-7.0,4.0,117.50312500000001,14.89,0.06496225,32.16
2021-06-23 15:29:33.820312500,63.0,-6.75,3.5,117.498828125,20.04,0.06472203125,32.16
2021-06-23 15:29:33.828125000,63.0,-6.5,3.0,117.49453125000001,25.19,0.0644818125,32.16
2021-06-23 15:29:33.835937500,63.0,-6.25,2.5,117.490234375,36.46,0.06424159374999999,32.16
2021-06-23 15:29:33.843750000,63.0,-6.0,2.0,117.4859375,47.73,0.064001375,32.16
2021-06-23 15:29:33.851562500,63.0,-6.0,1.75,117.48164062500001,64.21,0.06376115625,32.16
2021-06-23 15:29:33.859375000,63.0,-6.0,1.5,117.47734375,80.69,0.0635209375,32.16
2021-06-23 15:29:33.867187500,63.0,-6.0,1.25,117.47304687500001,99.35499999999999,0.06328071874999999,32.16
2021-06-23 15:29:33.875000000,63.0,-6.0,1.0,117.46875,118.02,0.0630405,32.16
2021-06-23 15:29:33.882812500,63.5,-6.5,0.5,117.464453125,135.0,0.06280028125,32.16
2021-06-23 15:29:33.890625000,64.0,-7.0,0.0,117.46015625000001,151.98,0.0625600625,32.16
2021-06-23 15:29:33.898437500,64.5,-7.5,-0.5,117.455859375,164.195,0.06231984375,32.16
2021-06-23 15:29:33.906250000,65.0,-8.0,-1.0,117.45156250000001,176.41,0.062079625,32.16
2021-06-23 15:29:33.914062500,65.0,-8.0,-0.75,117.447265625,182.655,0.06183940625,32.16
2021-06-23 15:29:33.921875000,65.0,-8.0,-0.5,117.44296875,188.9,0.0615991875,32.16
2021-06-23 15:29:33.929687500,65.0,-8.0,-0.25,117.43867187500001,189.70499999999998,0.06135896875,32.16
2021-06-23 15:29:33.937500000,65.0,-8.0,0.0,117.434375,190.51,0.06111875,32.16
2021-06-23 15:29:33.945312500,64.0,-8.0,0.25,117.43007812500001,187.175,0.06087853125,32.16
2021-06-23 15:29:33.953125000,63.0,-8.0,0.5,117.42578125,183.84,0.0606383125,32.16
2021-06-23 15:29:33.960937500,62.0,-8.0,0.75,117.421484375,177.275,0.06039809375,32.16
2021-06-23 15:29:33.968750000,61.0,-8.0,1.0,117.41718750000001,170.71,0.060157875,32.16
2021-06-23 15:29:33.976562500,61.5,-7.5,1.0,117.412890625,160.885,0.05991765625,32.16
2021-06-23 15:29:33.984375000,62.0,-7.0,1.0,117.40859375000001,151.06,0.0596774375,32.16
2021-06-23 15:29:33.992187500,62.5,-6.5,1.0,117.404296875,137.35500000000002,0.05943721875,32.16
2021-06-23 15:29:34.000000000,63.0,-6.0,1.0,117.4,123.65,0.059197,32.16
2021-06-23 15:29:34.007812500,62.75,-5.75,0.75,117.39554687500001,105.78,0.059197,32.1596875
2021-06-23 15:29:34.015625000,62.5,-5.5,0.5,117.39109375000001,87.91,0.059197,32.159375
2021-06-23 15:29:34.023437500,62.25,-5.25,0.25,117.38664062500001,66.805,0.059197,32.1590625
2021-06-23 15:29:34.031250000,62.0,-5.0,0.0,117.3821875,45.7,0.059197,32.15875
2021-06-23 15:29:34.039062500,62.5,-5.25,0.0,117.377734375,23.700000000000003,0.059197,32.1584375
2021-06-23 15:29:34.046875000,63.0,-5.5,0.0,117.37328125,1.7,0.059197,32.158125
2021-06-23 15:29:34.054687500,63.5,-5.75,0.0,117.36882812500001,-18.135,0.059197,32.1578125
2021-06-23 15:29:34.062500000,64.0,-6.0,0.0,117.36437500000001,-37.97,0.059197,32.1575
2021-06-23 15:29:34.070312500,64.0,-6.0,0.25,117.35992187500001,-53.12,0.059197,32.1571875
2021-06-23 15:29:34.078125000,64.0,-6.0,0.5,117.35546875,-68.27,0.059197,32.156875
2021-06-23 15:29:34.085937500,64.0,-6.0,0.75,117.351015625,-77.965,0.059197,32.1565625
2021-06-23 15:29:34.093750000,64.0,-6.0,1.0,117.3465625,-87.66,0.059197,32.15625
2021-06-23 15:29:34.101562500,64.0,-6.0,1.5,117.342109375,-93.515,0.059197,32.1559375
2021-06-23 15:29:34.109375000,64.0,-6.0,2.0,117.33765625000001,-99.37,0.059197,32.155625
2021-06-23 15:29:34.117187500,64.0,-6.0,2.5,117.33320312500001,-104.97,0.059197,32.1553125
2021-06-23 15:29:34.125000000,64.0,-6.0,3.0,117.32875,-110.57,0.059197,32.155
2021-06-23 15:29:34.132812500,64.0,-6.0,3.0,117.324296875,-120.25,0.059197,32.154687499999994
2021-06-23 15:29:34.140625000,64.0,-6.0,3.0,117.31984375,-129.93,0.059197,32.154374999999995
2021-06-23 15:29:34.148437500,64.0,-6.0,3.0,117.315390625,-147.185,0.059197,32.154062499999995
2021-06-23 15:29:34.156250000,64.0,-6.0,3.0,117.31093750000001,-164.44,0.059197,32.153749999999995
2021-06-23 15:29:34.164062500,63.75,-6.0,2.75,117.30648437500001,-190.44,0.059197,32.153437499999995
2021-06-23 15:29:34.171875000,63.5,-6.0,2.5,117.30203125,-216.44,0.059197,32.153124999999996
2021-06-23 15:29:34.179687500,63.25,-6.0,2.25,117.297578125,-249.425,0.059197,32.152812499999996
2021-06-23 15:29:34.187500000,63.0,-6.0,2.0,117.293125,-282.41,0.059197,32.152499999999996
2021-06-23 15:29:34.195312500,63.0,-6.0,2.0,117.288671875,-318.105,0.059197,32.1521875
2021-06-23 15:29:34.203125000,63.0,-6.0,2.0,117.28421875000001,-353.8,0.059197,32.151875
2021-06-23 15:29:34.210937500,63.0,-6.0,2.0,117.27976562500001,-386.695,0.059197,32.1515625
2021-06-23 15:29:34.218750000,63.0,-6.0,2.0,117.2753125,-419.59,0.059197,32.15125
2021-06-23 15:29:34.226562500,63.25,-6.25,2.0,117.270859375,-444.595,0.059197,32.1509375
2021-06-23 15:29:34.234375000,63.5,-6.5,2.0,117.26640625,-469.6,0.059197,32.150625
2021-06-23 15:29:34.242187500,63.75,-6.75,2.0,117.261953125,-483.46000000000004,0.059197,32.1503125
2021-06-23 15:29:34.250000000,64.0,-7.0,2.0,117.25750000000001,-497.32,0.059197,32.15
2021-06-23 15:29:34.257812500,63.75,-7.25,2.25,117.25304687500001,-499.28,0.05899684375,32.15
2021-06-23 15:29:34.265625000,63.5,-7.5,2.5,117.24859375,-501.24,0.0587966875,32.15
2021-06-23 15:29:34.273437500,63.25,-7.75,2.75,117.244140625,-492.82,0.05859653125,32.15
2021-06-23 15:29:34.281250000,63.0,-8.0,3.0,117.2396875,-484.4,0.058396375,32.15
2021-06-23 15:29:34.289062500,63.0,-7.5,3.0,117.235234375,-468.6,0.05819621875,32.15
2021-06-23 15:29:34.296875000,63.0,-7.0,3.0,117.23078125,-452.8,0.0579960625,32.15
2021-06-23 15:29:34.304687500,63.0,-6.5,3.0,117.22632812500001,-433.02,0.05779590625,32.15
2021-06-23 15:29:34.312500000,63.0,-6.0,3.0,117.221875,-413.24,0.05759575,32.15
2021-06-23 15:29:34.320312500,63.0,-6.0,3.0,117.217421875,-392.425,0.05739559375,32.15
2021-06-23 15:29:34.328125000,63.0,-6.0,3.0,117.21296875,-371.61,0.0571954375,32.15
2021-06-23 15:29:34.335937500,63.0,-6.0,3.0,117.208515625,-351.82500000000005,0.05699528125,32.15
2021-06-23 15:29:34.343750000,63.0,-6.0,3.0,117.2040625,-332.04,0.056795125,32.15
2021-06-23 15:29:34.351562500,63.0,-6.0,3.0,117.19960937500001,-314.485,0.05659496875,32.15
2021-06-23 15:29:34.359375000,63.0,-6.0,3.0,117.19515625,-296.93,0.0563948125,32.15
2021-06-23 15:29:34.367187500,63.0,-6.0,3.0,117.190703125,-282.16499999999996,0.05619465625,32.15
2021-06-23 15:29:34.375000000,63.0,-6.0,3.0,117.18625,-267.4,0.0559945,32.15
2021-06-23 15:29:34.382812500,63.0,-6.0,2.75,117.181796875,-255.65499999999997,0.05579434375,32.15
2021-06-23 15:29:34.390625000,63.0,-6.0,2.5,117.17734375,-243.91,0.055594187499999996,32.15
2021-06-23 15:29:34.398437500,63.0,-6.0,2.25,117.17289062500001,-235.17000000000002,0.055394031249999996,32.15
2021-06-23 15:29:34.406250000,63.0,-6.0,2.0,117.1684375,-226.43,0.055193874999999996,32.15
2021-06-23 15:29:34.414062500,63.25,-6.0,2.0,117.163984375,-220.32,0.05499371875,32.15
2021-06-23 15:29:34.421875000,63.5,-6.0,2.0,117.15953125,-214.21,0.0547935625,32.15
2021-06-23 15:29:34.429687500,63.75,-6.0,2.0,117.155078125,-209.9,0.05459340625,32.15
2021-06-23 15:29:34.437500000,64.0,-6.0,2.0,117.150625,-205.59,0.05439325,32.15
2021-06-23 15:29:34.445312500,63.75,-6.0,2.25,117.14617187500001,-201.89,0.05419309375,32.15
2021-06-23 15:29:34.453125000,63.5,-6.0,2.5,117.14171875,-198.19,0.0539929375,32.15
2021-06-23 15:29:34.460937500,63.25,-6.0,2.75,117.137265625,-193.865,0.05379278125,32.15
2021-06-23 15:29:34.468750000,63.0,-6.0,3.0,117.1328125,-189.54,0.053592625,32.15
2021-06-23 15:29:34.476562500,63.0,-5.75,3.0,117.128359375,-183.725,0.05339246875,32.15
2021-06-23 15:29:34.484375000,63.0,-5.5,3.0,117.12390625,-177.91,0.0531923125,32.15
2021-06-23 15:29:34.492187500,63.0,-5.25,3.0,117.119453125,-170.385,0.05299215625,32.15
2021-06-23 15:29:34.500000000,63.0,-5.0,3.0,117.11500000000001,-162.86,0.052792,32.15
2021-06-23 15:29:34.507812500,63.0,-5.0,3.0,117.110546875,-153.98000000000002,0.05299215625,32.15
2021-06-23 15:29:34.515625000,63.0,-5.0,3.0,117.10609375,-145.1,0.0531923125,32.15
2021-06-23 15:29:34.523437500,63.0,-5.0,3.0,117.101640625,-135.535,0.05339246875,32.15
2021-06-23 15:29:34.531250000,63.0,-5.0,3.0,117.0971875,-125.97,0.053592625,32.15
2021-06-23 15:29:34.539062500,63.0,-5.25,3.0,117.092734375,-116.305,0.05379278125,32.15
2021-06-23 15:29:34.546875000,63.0,-5.5,3.0,117.08828125000001,-106.64,0.0539929375,32.15
2021-06-23 15:29:34.554687500,63.0,-5.75,3.0,117.083828125,-97.125,0.05419309375,32.15
2021-06-23 15:29:34.562500000,63.0,-6.0,3.0,117.079375,-87.61,0.05439325,32.15
2021-06-23 15:29:34.570312500,63.0,-5.75,3.0,117.074921875,-78.095,0.05459340625,32.15
2021-06-23 15:29:34.578125000,63.0,-5.5,3.0,117.07046875,-68.58,0.0547935625,32.15
2021-06-23 15:29:34.585937500,63.0,-5.25,3.0,117.066015625,-58.72,0.05499371875,32.15
2021-06-23 15:29:34.593750000,63.0,-5.0,3.0,117.06156250000001,-48.86,0.055193874999999996,32.15
2021-06-23 15:29:34.601562500,63.25,-5.0,3.0,117.057109375,-38.295,0.055394031249999996,32.15
2021-06-23 15:29:34.609375000,63.5,-5.0,3.0,117.05265625,-27.73,0.055594187499999996,32.15
2021-06-23 15:29:34.617187500,63.75,-5.0,3.0,117.048203125,-16.29,0.05579434375,32.15
2021-06-23 15:29:34.625000000,64.0,-5.0,3.0,117.04375,-4.85,0.0559945,32.15
2021-06-23 15:29:34.632812500,63.75,-5.0,3.0,117.039296875,7.42,0.05619465625,32.15
2021-06-23 15:29:34.640625000,63.5,-5.0,3.0,117.03484375000001,19.69,0.0563948125,32.15
2021-06-23 15:29:34.648437500,63.25,-5.0,3.0,117.030390625,32.57,0.05659496875,32.15
2021-06-23 15:29:34.656250000,63.0,-5.0,3.0,117.0259375,45.45,0.056795125,32.15
2021-06-23 15:29:34.664062500,63.0,-5.25,3.0,117.021484375,58.68,0.05699528125,32.15
2021-06-23 15:29:34.671875000,63.0,-5.5,3.0,117.01703125,71.91,0.0571954375,32.15
2021-06-23 15:29:34.679687500,63.0,-5.75,3.0,117.012578125,85.32499999999999,0.05739559375,32.15
2021-06-23 15:29:34.687500000,63.0,-6.0,3.0,117.008125,98.74,0.05759575,32.15
2021-06-23 15:29:34.695312500,63.0,-6.0,3.0,117.003671875,112.44,0.05779590625,32.15
2021-06-23 15:29:34.703125000,63.0,-6.0,3.0,116.99921875,126.14,0.0579960625,32.15
2021-06-23 15:29:34.710937500,63.0,-6.0,3.0,116.994765625,140.6,0.05819621875,32.15
2021-06-23 15:29:34.718750000,63.0,-6.0,3.0,116.9903125,155.06,0.058396375,32.15
2021-06-23 15:29:34.726562500,63.0,-5.75,3.0,116.985859375,171.04500000000002,0.05859653125,32.15
2021-06-23 15:29:34.734375000,63.0,-5.5,3.0,116.98140625,187.03,0.0587966875,32.15
2021-06-23 15:29:34.742187500,63.0,-5.25,3.0,116.976953125,205.18,0.05899684375,32.15
2021-06-23 15:29:34.750000000,63.0,-5.0,3.0,116.9725,223.33,0.059197,32.15
2021-06-23 15:29:34.757812500,63.25,-5.0,3.0,116.968046875,243.56,0.05907690625,32.15
2021-06-23 15:29:34.765625000,63.5,-5.0,3.0,116.96359375,263.79,0.0589568125,32.15
2021-06-23 15:29:34.773437500,63.75,-5.0,3.0,116.959140625,284.745,0.05883671875,32.15
2021-06-23 15:29:34.781250000,64.0,-5.0,3.0,116.9546875,305.7,0.058716625,32.15
2021-06-23 15:29:34.789062500,63.75,-5.25,3.25,116.950234375,324.7,0.05859653125,32.15
2021-06-23 15:29:34.796875000,63.5,-5.5,3.5,116.94578125,343.7,0.0584764375,32.15
2021-06-23 15:29:34.804687500,63.25,-5.75,3.75,116.941328125,357.435,0.05835634375,32.15
2021-06-23 15:29:34.812500000,63.0,-6.0,4.0,116.936875,371.17,0.05823625,32.15
2021-06-23 15:29:34.820312500,62.75,-6.0,4.0,116.932421875,376.865,0.05811615625,32.15
2021-06-23 15:29:34.828125000,62.5,-6.0,4.0,116.92796875,382.56,0.0579960625,32.15
2021-06-23 15:29:34.835937500,62.25,-6.0,4.0,116.923515625,379.155,0.05787596875,32.15
2021-06-23 15:29:34.843750000,62.0,-6.0,4.0,116.9190625,375.75,0.057755875,32.15
2021-06-23 15:29:34.851562500,62.25,-6.0,3.75,116.914609375,364.45500000000004,0.05763578125,32.15
2021-06-23 15:29:34.859375000,62.5,-6.0,3.5,116.91015625,353.16,0.0575156875,32.15
2021-06-23 15:29:34.867187500,62.75,-6.0,3.25,116.905703125,336.94500000000005,0.05739559375,32.15
2021-06-23 15:29:34.875000000,63.0,-6.0,3.0,116.90125,320.73,0.0572755,32.15
2021-06-23 15:29:34.882812500,63.0,-6.0,3.0,116.89679687499999,303.105,0.05715540625,32.15
2021-06-23 15:29:34.890625000,63.0,-6.0,3.0,116.89234375,285.48,0.0570353125,32.15
2021-06-23 15:29:34.898437500,63.0,-6.0,3.0,116.887890625,269.15,0.05691521875,32.15
2021-06-23 15:29:34.906250000,63.0,-6.0,3.0,116.8834375,252.82,0.056795125,32.15
2021-06-23 15:29:34.914062500,63.0,-6.0,3.0,116.878984375,239.01999999999998,0.05667503125,32.15
2021-06-23 15:29:34.921875000,63.0,-6.0,3.0,116.87453125,225.22,0.0565549375,32.15
2021-06-23 15:29:34.929687500,63.0,-6.0,3.0,116.87007812499999,213.95999999999998,0.05643484375,32.15
2021-06-23 15:29:34.937500000,63.0,-6.0,3.0,116.865625,202.7,0.05631475,32.15
2021-06-23 15:29:34.945312500,63.0,-6.0,3.0,116.861171875,193.56,0.05619465625,32.15
2021-06-23 15:29:34.953125000,63.0,-6.0,3.0,116.85671875,184.42,0.0560745625,32.15
2021-06-23 15:29:34.960937500,63.0,-6.0,3.0,116.852265625,177.26,0.05595446875,32.15
2021-06-23 15:29:34.968750000,63.0,-6.0,3.0,116.8478125,170.1,0.055834375,32.15
2021-06-23 15:29:34.976562500,63.0,-6.0,3.25,116.84335937499999,165.04500000000002,0.05571428125,32.15
2021-06-23 15:29:34.984375000,63.0,-6.0,3.5,116.83890625,159.99,0.0555941875,32.15
2021-06-23 15:29:34.992187500,63.0,-6.0,3.75,116.834453125,156.82999999999998,0.05547409375,32.15
2021-06-23 15:29:35.000000000,63.0,-6.0,4.0,116.83,153.67,0.055354,32.15
2021-06-23 15:29:35.007812500,63.0,-5.75,3.75,116.825234375,151.305,0.055354,32.1503125
2021-06-23 15:29:35.015625000,63.0,-5.5,3.5,116.82046875,148.94,0.055354,32.150625
2021-06-23 15:29:35.023437500,63.0,-5.25,3.25,116.815703125,145.41,0.055354,32.1509375
2021-06-23 15:29:35.031250000,63.0,-5.0,3.0,116.8109375,141.88,0.055354,32.15125
2021-06-23 15:29:35.039062500,63.0,-5.0,3.0,116.806171875,135.215,0.055354,32.1515625
2021-06-23 15:29:35.046875000,63.0,-5.0,3.0,116.80140625,128.55,0.055354,32.151875
2021-06-23 15:29:35.054687500,63.0,-5.0,3.0,116.796640625,117.93,0.055354,32.1521875
2021-06-23 15:29:35.062500000,63.0,-5.0,3.0,116.791875,107.31,0.055354,32.152499999999996
2021-06-23 15:29:35.070312500,63.0,-5.0,3.25,116.787109375,93.73,0.055354,32.152812499999996
2021-06-23 15:29:35.078125000,63.0,-5.0,3.5,116.78234375,80.15,0.055354,32.153124999999996
2021-06-23 15:29:35.085937500,63.0,-5.0,3.75,116.777578125,66.13,0.055354,32.153437499999995
2021-06-23 15:29:35.093750000,63.0,-5.0,4.0,116.7728125,52.11,0.055354,32.153749999999995
2021-06-23 15:29:35.101562500,63.0,-5.0,4.0,116.768046875,40.53,0.055354,32.154062499999995
2021-06-23 15:29:35.109375000,63.0,-5.0,4.0,116.76328124999999,28.95,0.055354,32.154374999999995
2021-06-23 15:29:35.117187500,63.0,-5.0,4.0,116.758515625,21.685,0.055354,32.154687499999994
2021-06-23 15:29:35.125000000,63.0,-5.0,4.0,116.75375,14.42,0.055354,32.155
2021-06-23 15:29:35.132812500,63.0,-5.25,3.75,116.74898437499999,11.525,0.055354,32.1553125
2021-06-23 15:29:35.140625000,63.0,-5.5,3.5,116.74421875,8.63,0.055354,32.155625
2021-06-23 15:29:35.148437500,63.0,-5.75,3.25,116.739453125,8.555,0.055354,32.1559375
2021-06-23 15:29:35.156250000,63.0,-6.0,3.0,116.73468749999999,8.48,0.055354,32.15625
2021-06-23 15:29:35.164062500,63.0,-6.0,3.0,116.729921875,8.98,0.055354,32.1565625
2021-06-23 15:29:35.171875000,63.0,-6.0,3.0,116.72515625,9.48,0.055354,32.156875
2021-06-23 15:29:35.179687500,63.0,-6.0,3.0,116.720390625,8.685,0.055354,32.1571875
2021-06-23 15:29:35.187500000,63.0,-6.0,3.0,116.715625,7.89,0.055354,32.1575
2021-06-23 15:29:35.195312500,63.0,-6.0,3.0,116.710859375,4.995,0.055354,32.1578125
2021-06-23 15:29:35.203125000,63.0,-6.0,3.0,116.70609375,2.1,0.055354,32.158125
2021-06-23 15:29:35.210937500,63.0,-6.0,3.0,116.701328125,-2.64,0.055354,32.1584375
2021-06-23 15:29:35.218750000,63.0,-6.0,3.0,116.6965625,-7.38,0.055354,32.15875
2021-06-23 15:29:35.226562500,63.0,-6.0,3.0,116.691796875,-12.985,0.055354,32.1590625
2021-06-23 15:29:35.234375000,63.0,-6.0,3.0,116.68703125,-18.59,0.055354,32.159375
2021-06-23 15:29:35.242187500,63.0,-6.0,3.0,116.682265625,-23.825,0.055354,32.1596875
2021-06-23 15:29:35.250000000,63.0,-6.0,3.0,116.6775,-29.06,0.055354,32.16
2021-06-23 15:29:35.257812500,63.0,-6.0,3.0,116.672734375,-32.75,0.05559421875,32.16
2021-06-23 15:29:35.265625000,63.0,-6.0,3.0,116.66796875,-36.44,0.0558344375,32.16
2021-06-23 15:29:35.273437500,63.0,-6.0,3.0,116.663203125,-37.709999999999994,0.05607465625,32.16
2021-06-23 15:29:35.281250000,63.0,-6.0,3.0,116.6584375,-38.98,0.056314875,32.16
2021-06-23 15:29:35.289062500,63.0,-5.75,3.0,116.653671875,-37.41,0.05655509375,32.16
2021-06-23 15:29:35.296875000,63.0,-5.5,3.0,116.64890625,-35.84,0.0567953125,32.16
2021-06-23 15:29:35.304687500,63.0,-5.25,3.0,116.64414062499999,-31.615000000000002,0.05703553125,32.16
2021-06-23 15:29:35.312500000,63.0,-5.0,3.0,116.639375,-27.39,0.05727575,32.16
2021-06-23 15:29:35.320312500,63.0,-5.25,3.0,116.634609375,-21.365000000000002,0.05751596875,32.16
2021-06-23 15:29:35.328125000,63.0,-5.5,3.0,116.62984374999999,-15.34,0.0577561875,32.16
2021-06-23 15:29:35.335937500,63.0,-5.75,3.0,116.625078125,-8.8,0.05799640625,32.16
2021-06-23 15:29:35.343750000,63.0,-6.0,3.0,116.6203125,-2.26,0.058236625,32.16
2021-06-23 15:29:35.351562500,63.0,-5.75,3.0,116.61554687499999,3.5,0.05847684375,32.16
2021-06-23 15:29:35.359375000,63.0,-5.5,3.0,116.61078125,9.26,0.0587170625,32.16
2021-06-23 15:29:35.367187500,63.0,-5.25,3.0,116.606015625,13.415,0.05895728125,32.16
2021-06-23 15:29:35.375000000,63.0,-5.0,3.0,116.60125,17.57,0.0591975,32.16
2021-06-23 15:29:35.382812500,63.0,-5.0,3.0,116.596484375,20.04,0.05943771875,32.16
2021-06-23 15:29:35.390625000,63.0,-5.0,3.0,116.59171875,22.51,0.0596779375,32.16
2021-06-23 15:29:35.398437500,63.0,-5.0,3.0,116.586953125,23.885,0.05991815625,32.16
2021-06-23 15:29:35.406250000,63.0,-5.0,3.0,116.5821875,25.26,0.060158375,32.16
2021-06-23 15:29:35.414062500,63.0,-5.25,3.0,116.577421875,26.395000000000003,0.06039859375,32.16
2021-06-23 15:29:35.421875000,63.0,-5.5,3.0,116.57265625,27.53,0.0606388125,32.16
2021-06-23 15:29:35.429687500,63.0,-5.75,3.0,116.567890625,29.12,0.06087903125,32.16
2021-06-23 15:29:35.437500000,63.0,-6.0,3.0,116.563125,30.71,0.06111925,32.16
2021-06-23 15:29:35.445312500,63.0,-6.0,3.0,116.558359375,32.955,0.06135946875,32.16
2021-06-23 15:29:35.453125000,63.0,-6.0,3.0,116.55359375,35.2,0.0615996875,32.16
2021-06-23 15:29:35.460937500,63.0,-6.0,3.0,116.548828125,37.865,0.06183990625,32.16
2021-06-23 15:29:35.468750000,63.0,-6.0,3.0,116.5440625,40.53,0.062080125,32.16
2021-06-23 15:29:35.476562500,63.25,-6.0,3.0,116.539296875,43.155,0.06232034375,32.16
2021-06-23 15:29:35.484375000,63.5,-6.0,3.0,116.53453125,45.78,0.0625605625,32.16
2021-06-23 15:29:35.492187500,63.75,-6.0,3.0,116.529765625,47.93,0.06280078124999999,32.16
2021-06-23 15:29:35.500000000,64.0,-6.0,3.0,116.525,50.08,0.063041,32.16
2021-06-23 15:29:35.507812500,63.75,-6.0,3.0,116.520234375,51.515,0.06288084375,32.16
2021-06-23 15:29:35.515625000,63.5,-6.0,3.0,116.51546875,52.95,0.0627206875,32.16
2021-06-23 15:29:35.523437500,63.25,-6.0,3.0,116.51070312499999,53.575,0.06256053125,32.16
2021-06-23 15:29:35.531250000,63.0,-6.0,3.0,116.5059375,54.2,0.062400375,32.16
2021-06-23 15:29:35.539062500,63.0,-6.0,3.0,116.501171875,53.965,0.06224021875,32.16
2021-06-23 15:29:35.546875000,63.0,-6.0,3.0,116.49640624999999,53.73,0.0620800625,32.16
2021-06-23 15:29:35.554687500,63.0,-6.0,3.0,116.491640625,52.51,0.061919906250000004,32.16
2021-06-23 15:29:35.562500000,63.0,-6.0,3.0,116.486875,51.29,0.06175975,32.16
2021-06-23 15:29:35.570312500,63.0,-6.0,3.0,116.482109375,48.905,0.06159959375,32.16
2021-06-23 15:29:35.578125000,63.0,-6.0,3.0,116.47734375,46.52,0.0614394375,32.16
2021-06-23 15:29:35.585937500,63.0,-6.0,3.0,116.472578125,42.875,0.06127928125,32.16
2021-06-23 15:29:35.593750000,63.0,-6.0,3.0,116.4678125,39.23,0.061119125,32.16
2021-06-23 15:29:35.601562500,63.0,-5.75,3.0,116.463046875,34.44,0.06095896875,32.16
2021-06-23 15:29:35.609375000,63.0,-5.5,3.0,116.45828125,29.65,0.0607988125,32.16
2021-06-23 15:29:35.617187500,63.0,-5.25,3.0,116.453515625,24.125,0.06063865625,32.16
2021-06-23 15:29:35.625000000,63.0,-5.0,3.0,116.44875,18.6,0.060478500000000004,32.16
2021-06-23 15:29:35.632812500,63.0,-5.25,3.0,116.443984375,12.935,0.06031834375,32.16
2021-06-23 15:29:35.640625000,63.0,-5.5,3.0,116.43921875,7.27,0.0601581875,32.16
2021-06-23 15:29:35.648437500,63.0,-5.75,3.0,116.434453125,2.125,0.05999803125,32.16
2021-06-23 15:29:35.656250000,63.0,-6.0,3.0,116.4296875,-3.02,0.059837875,32.16
2021-06-23 15:29:35.664062500,63.0,-6.0,3.0,116.424921875,-7.1899999999999995,0.059677718750000004,32.16
2021-06-23 15:29:35.671875000,63.0,-6.0,3.0,116.42015625,-11.36,0.0595175625,32.16
2021-06-23 15:29:35.679687500,63.0,-6.0,3.0,116.415390625,-14.4,0.05935740625,32.16
2021-06-23 15:29:35.687500000,63.0,-6.0,3.0,116.410625,-17.44,0.05919725,32.16
2021-06-23 15:29:35.695312500,63.0,-6.0,3.0,116.405859375,-19.520000000000003,0.059037093750000005,32.16
2021-06-23 15:29:35.703125000,63.0,-6.0,3.0,116.40109375,-21.6,0.058876937500000004,32.16
2021-06-23 15:29:35.710937500,63.0,-6.0,3.0,116.396328125,-23.14,0.05871678125,32.16
2021-06-23 15:29:35.718750000,63.0,-6.0,3.0,116.39156249999999,-24.68,0.058556625,32.16
2021-06-23 15:29:35.726562500,63.0,-6.0,3.25,116.386796875,-26.165,0.05839646875,32.16
2021-06-23 15:29:35.734375000,63.0,-6.0,3.5,116.38203125,-27.65,0.0582363125,32.16
2021-06-23 15:29:35.742187500,63.0,-6.0,3.75,116.37726562499999,-29.424999999999997,0.058076156250000004,32.16
2021-06-23 15:29:35.750000000,63.0,-6.0,4.0,116.3725,-31.2,0.057916,32.16
2021-06-23 15:29:35.757812500,63.0,-6.0,3.75,116.367734375,-33.36,0.057996093750000005,32.16
2021-06-23 15:29:35.765625000,63.0,-6.0,3.5,116.36296875,-35.52,0.0580761875,32.16
2021-06-23 15:29:35.773437500,63.0,-6.0,3.25,116.358203125,-37.89,0.058156281250000004,32.16
2021-06-23 15:29:35.781250000,63.0,-6.0,3.0,116.3534375,-40.26,0.058236375,32.16
2021-06-23 15:29:35.789062500,63.0,-6.0,3.0,116.348671875,-42.465,0.05831646875,32.16
2021-06-23 15:29:35.796875000,63.0,-6.0,3.0,116.34390625,-44.67,0.0583965625,32.16
2021-06-23 15:29:35.804687500,63.0,-6.0,3.0,116.339140625,-46.335,0.05847665625,32.16
2021-06-23 15:29:35.812500000,63.0,-6.0,3.0,116.334375,-48.0,0.058556750000000005,32.16
2021-06-23 15:29:35.820312500,63.0,-6.0,3.0,116.329609375,-48.905,0.05863684375,32.16
2021-06-23 15:29:35.828125000,63.0,-6.0,3.0,116.32484375,-49.81,0.058716937500000004,32.16
2021-06-23 15:29:35.835937500,63.0,-6.0,3.0,116.320078125,-49.97,0.05879703125,32.16
2021-06-23 15:29:35.843750000,63.0,-6.0,3.0,116.3153125,-50.13,0.058877125,32.16
2021-06-23 15:29:35.851562500,63.0,-6.0,3.0,116.310546875,-49.75,0.05895721875,32.16
2021-06-23 15:29:35.859375000,63.0,-6.0,3.0,116.30578125,-49.37,0.0590373125,32.16
2021-06-23 15:29:35.867187500,63.0,-6.0,3.0,116.301015625,-48.709999999999994,0.05911740625,32.16
2021-06-23 15:29:35.875000000,63.0,-6.0,3.0,116.29625,-48.05,0.0591975,32.16
2021-06-23 15:29:35.882812500,63.0,-6.0,3.0,116.291484375,-47.235,0.05927759375,32.16
2021-06-23 15:29:35.890625000,63.0,-6.0,3.0,116.28671875,-46.42,0.0593576875,32.16
2021-06-23 15:29:35.898437500,63.0,-6.0,3.0,116.281953125,-45.365,0.05943778125,32.16
2021-06-23 15:29:35.906250000,63.0,-6.0,3.0,116.2771875,-44.31,0.059517875,32.16
2021-06-23 15:29:35.914062500,63.0,-6.0,3.0,116.27242187499999,-42.745000000000005,0.05959796875,32.16
2021-06-23 15:29:35.921875000,63.0,-6.0,3.0,116.26765625,-41.18,0.0596780625,32.16
2021-06-23 15:29:35.929687500,63.0,-6.0,3.0,116.262890625,-38.769999999999996,0.05975815625,32.16
2021-06-23 15:29:35.937500000,63.0,-6.0,3.0,116.25812499999999,-36.36,0.059838249999999996,32.16
2021-06-23 15:29:35.945312500,63.0,-5.75,3.0,116.253359375,-32.805,0.05991834375,32.16
2021-06-23 15:29:35.953125000,63.0,-5.5,3.0,116.24859375,-29.25,0.0599984375,32.16
2021-06-23 15:29:35.960937500,63.0,-5.25,3.0,116.243828125,-24.43,0.06007853125,32.16
2021-06-23 15:29:35.968750000,63.0,-5.0,3.0,116.2390625,-19.61,0.060158625,32.16
2021-06-23 15:29:35.976562500,63.0,-5.25,3.0,116.234296875,-13.615,0.060238718749999996,32.16
2021-06-23 15:29:35.984375000,63.0,-5.5,3.0,116.22953125,-7.62,0.0603188125,32.16
2021-06-23 15:29:35.992187500,63.0,-5.75,3.0,116.224765625,-0.7600000000000007,0.060398906249999995,32.16
2021-06-23 15:29:36.000000000,63.0,-6.0,3.0,116.22,6.1,0.060479,32.16
2021-06-23 15:29:36.007812500,63.0,-6.0,3.25,116.21382812499999,13.280000000000001,0.0604389375,32.1596875
2021-06-23 15:29:36.015625000,63.0,-6.0,3.5,116.20765625,20.46,0.060398875,32.159375
2021-06-23 15:29:36.023437500,63.0,-6.0,3.75,116.20148437499999,27.285,0.0603588125,32.1590625
2021-06-23 15:29:36.031250000,63.0,-6.0,4.0,116.1953125,34.11,0.06031875,32.15875
2021-06-23 15:29:36.039062500,63.0,-6.0,3.75,116.189140625,39.905,0.0602786875,32.1584375
2021-06-23 15:29:36.046875000,63.0,-6.0,3.5,116.18296875,45.7,0.060238625,32.158125
2021-06-23 15:29:36.054687500,63.0,-6.0,3.25,116.176796875,49.95,0.0601985625,32.1578125
2021-06-23 15:29:36.062500000,63.0,-6.0,3.0,116.170625,54.2,0.0601585,32.1575
2021-06-23 15:29:36.070312500,63.0,-6.0,3.0,116.164453125,56.69,0.0601184375,32.1571875
2021-06-23 15:29:36.078125000,63.0,-6.0,3.0,116.15828125,59.18,0.060078374999999996,32.156875
2021-06-23 15:29:36.085937500,63.0,-6.0,3.0,116.152109375,60.114999999999995,0.060038312499999996,32.1565625
2021-06-23 15:29:36.093750000,63.0,-6.0,3.0,116.1459375,61.05,0.059998249999999996,32.15625
2021-06-23 15:29:36.101562500,63.0,-5.75,3.0,116.139765625,60.864999999999995,0.059958187499999996,32.1559375
2021-06-23 15:29:36.109375000,63.0,-5.5,3.0,116.13359375,60.68,0.059918124999999996,32.155625
2021-06-23 15:29:36.117187500,63.0,-5.25,3.0,116.127421875,59.885000000000005,0.059878062499999996,32.1553125
2021-06-23 15:29:36.125000000,63.0,-5.0,3.0,116.12125,59.09,0.059838,32.155
2021-06-23 15:29:36.132812500,63.0,-5.25,3.0,116.115078125,58.010000000000005,0.0597979375,32.154687499999994
2021-06-23 15:29:36.140625000,63.0,-5.5,3.0,116.10890625,56.93,0.059757875,32.154374999999995
2021-06-23 15:29:36.148437500,63.0,-5.75,3.0,116.102734375,55.625,0.0597178125,32.154062499999995
2021-06-23 15:29:36.156250000,63.0,-6.0,3.0,116.0965625,54.32,0.05967775,32.153749999999995
2021-06-23 15:29:36.164062500,63.0,-6.0,3.0,116.090390625,52.605000000000004,0.0596376875,32.153437499999995
2021-06-23 15:29:36.171875000,63.0,-6.0,3.0,116.08421875,50.89,0.059597625,32.153124999999996
2021-06-23 15:29:36.179687500,63.0,-6.0,3.0,116.078046875,48.565,0.0595575625,32.152812499999996
2021-06-23 15:29:36.187500000,63.0,-6.0,3.0,116.071875,46.24,0.0595175,32.152499999999996
2021-06-23 15:29:36.195312500,63.0,-6.0,3.0,116.065703125,43.285,0.0594774375,32.1521875
2021-06-23 15:29:36.203125000,63.0,-6.0,3.0,116.05953125,40.33,0.059437375,32.151875
2021-06-23 15:29:36.210937500,63.0,-6.0,3.0,116.053359375,36.989999999999995,0.0593973125,32.1515625
2021-06-23 15:29:36.218750000,63.0,-6.0,3.0,116.0471875,33.65,0.05935725,32.15125
2021-06-23 15:29:36.226562500,63.0,-6.0,3.0,116.041015625,30.375,0.0593171875,32.1509375
2021-06-23 15:29:36.234375000,63.0,-6.0,3.0,116.03484375000001,27.1,0.059277125,32.150625
2021-06-23 15:29:36.242187500,63.0,-6.0,3.0,116.028671875,24.335,0.0592370625,32.1503125
2021-06-23 15:29:36.250000000,63.0,-6.0,3.0,116.02250000000001,21.57,0.059197,32.15
2021-06-23 15:29:36.257812500,63.0,-6.0,3.0,116.016328125,19.515,0.05915696875,32.15
2021-06-23 15:29:36.265625000,63.0,-6.0,3.0,116.01015625,17.46,0.0591169375,32.15
2021-06-23 15:29:36.273437500,63.0,-6.0,3.0,116.003984375,15.985,0.05907690625,32.15
2021-06-23 15:29:36.281250000,63.0,-6.0,3.0,115.9978125,14.51,0.059036875,32.15
2021-06-23 15:29:36.289062500,63.0,-6.0,3.0,115.991640625,13.24,0.05899684375,32.15
2021-06-23 15:29:36.296875000,63.0,-6.0,3.0,115.98546875,11.97,0.0589568125,32.15
2021-06-23 15:29:36.304687500,63.0,-6.0,3.0,115.979296875,10.49,0.05891678125,32.15
2021-06-23 15:29:36.312500000,63.0,-6.0,3.0,115.973125,9.01,0.05887675,32.15
2021-06-23 15:29:36.320312500,63.0,-6.0,3.0,115.966953125,7.16,0.05883671875,32.15
2021-06-23 15:29:36.328125000,63.0,-6.0,3.0,115.96078125,5.31,0.0587966875,32.15
2021-06-23 15:29:36.335937500,63.0,-6.0,3.0,115.954609375,3.28,0.05875665625,32.15
2021-06-23 15:29:36.343750000,63.0,-6.0,3.0,115.9484375,1.25,0.058716625,32.15
2021-06-23 15:29:36.351562500,63.0,-5.75,3.0,115.942265625,-0.45999999999999996,0.05867659375,32.15
2021-06-23 15:29:36.359375000,63.0,-5.5,3.0,115.93609375,-2.17,0.0586365625,32.15
2021-06-23 15:29:36.367187500,63.0,-5.25,3.0,115.929921875,-2.965,0.05859653125,32.15
2021-06-23 15:29:36.375000000,63.0,-5.0,3.0,115.92375,-3.76,0.0585565,32.15
2021-06-23 15:29:36.382812500,63.0,-5.25,3.0,115.917578125,-3.2649999999999997,0.05851646875,32.15
2021-06-23 15:29:36.390625000,63.0,-5.5,3.0,115.91140625,-2.77,0.0584764375,32.15
2021-06-23 15:29:36.398437500,63.0,-5.75,3.0,115.905234375,-0.9950000000000001,0.05843640625,32.15
2021-06-23 15:29:36.406250000,63.0,-6.0,3.0,115.8990625,0.78,0.058396375,32.15
2021-06-23 15:29:36.414062500,63.0,-6.0,3.0,115.892890625,3.42,0.058356343750000005,32.15
2021-06-23 15:29:36.421875000,63.0,-6.0,3.0,115.88671875,6.06,0.0583163125,32.15
2021-06-23 15:29:36.429687500,63.0,-6.0,3.0,115.88054687500001,8.875,0.05827628125,32.15
2021-06-23 15:29:36.437500000,63.0,-6.0,3.0,115.874375,11.69,0.05823625,32.15
2021-06-23 15:29:36.445312500,63.0,-6.0,3.0,115.86820312500001,13.985,0.05819621875,32.15
2021-06-23 15:29:36.453125000,63.0,-6.0,3.0,115.86203125,16.28,0.058156187500000005,32.15
2021-06-23 15:29:36.460937500,63.0,-6.0,3.0,115.85585937500001,17.595,0.05811615625,32.15
2021-06-23 15:29:36.468750000,63.0,-6.0,3.0,115.8496875,18.91,0.058076125,32.15
2021-06-23 15:29:36.476562500,63.0,-6.0,3.0,115.84351562500001,19.134999999999998,0.058036093750000003,32.15
2021-06-23 15:29:36.484375000,63.0,-6.0,3.0,115.83734375,19.36,0.0579960625,32.15
2021-06-23 15:29:36.492187500,63.0,-6.0,3.0,115.83117187500001,18.685000000000002,0.057956031250000005,32.15
2021-06-23 15:29:36.500000000,63.0,-6.0,3.0,115.825,18.01,0.057916,32.15
2021-06-23 15:29:36.507812500,63.0,-6.0,3.0,115.818828125,16.810000000000002,0.058036125,32.15
2021-06-23 15:29:36.515625000,63.0,-6.0,3.0,115.81265625,15.61,0.05815625,32.15
2021-06-23 15:29:36.523437500,63.0,-6.0,3.0,115.806484375,14.23,0.058276375000000005,32.15
2021-06-23 15:29:36.531250000,63.0,-6.0,3.0,115.8003125,12.85,0.058396500000000004,32.15
2021-06-23 15:29:36.539062500,63.0,-6.0,3.0,115.794140625,11.504999999999999,0.058516625,32.15
2021-06-23 15:29:36.546875000,63.0,-6.0,3.0,115.78796875,10.16,0.05863675,32.15
2021-06-23 15:29:36.554687500,63.0,-6.0,3.0,115.781796875,8.9,0.058756875,32.15
2021-06-23 15:29:36.562500000,63.0,-6.0,3.0,115.775625,7.64,0.058877,32.15
2021-06-23 15:29:36.570312500,63.0,-5.75,3.0,115.769453125,6.41,0.058997125000000004,32.15
2021-06-23 15:29:36.578125000,63.0,-5.5,3.0,115.76328125,5.18,0.05911725,32.15
2021-06-23 15:29:36.585937500,63.0,-5.25,3.0,115.757109375,3.965,0.059237375,32.15
2021-06-23 15:29:36.593750000,63.0,-5.0,3.0,115.7509375,2.75,0.0593575,32.15
2021-06-23 15:29:36.601562500,63.0,-5.0,3.0,115.744765625,1.655,0.059477625,32.15
2021-06-23 15:29:36.609375000,63.0,-5.0,3.0,115.73859375,0.56,0.059597750000000005,32.15
2021-06-23 15:29:36.617187500,63.0,-5.0,3.0,115.732421875,-0.17999999999999994,0.059717875000000004,32.15
2021-06-23 15:29:36.625000000,63.0,-5.0,3.0,115.72625000000001,-0.92,0.059838,32.15
2021-06-23 15:29:36.632812500,63.0,-5.25,3.0,115.720078125,-1.055,0.059958125,32.15
2021-06-23 15:29:36.640625000,63.0,-5.5,3.0,115.71390625000001,-1.19,0.06007825,32.15
2021-06-23 15:29:36.648437500,63.0,-5.75,3.0,115.707734375,-0.585,0.060198375000000005,32.15
2021-06-23 15:29:36.656250000,63.0,-6.0,3.0,115.70156250000001,0.02,0.060318500000000004,32.15
2021-06-23 15:29:36.664062500,63.0,-6.0,3.0,115.695390625,1.235,0.060438625,32.15
2021-06-23 15:29:36.671875000,63.0,-6.0,3.0,115.68921875000001,2.45,0.06055875,32.15
2021-06-23 15:29:36.679687500,63.0,-6.0,3.0,115.683046875,3.955,0.060678875,32.15
2021-06-23 15:29:36.687500000,63.0,-6.0,3.0,115.67687500000001,5.46,0.060799000000000006,32.15
2021-06-23 15:29:36.695312500,63.0,-6.0,3.0,115.670703125,6.85,0.060919125000000005,32.15
2021-06-23 15:29:36.703125000,63.0,-6.0,3.0,115.66453125000001,8.24,0.06103925,32.15
2021-06-23 15:29:36.710937500,63.0,-6.0,3.0,115.658359375,9.17,0.061159375,32.15
2021-06-23 15:29:36.718750000,63.0,-6.0,3.0,115.65218750000001,10.1,0.0612795,32.15
2021-06-23 15:29:36.726562500,63.0,-6.0,3.0,115.646015625,10.43,0.061399625,32.15
2021-06-23 15:29:36.734375000,63.0,-6.0,3.0,115.63984375000001,10.76,0.061519750000000005,32.15
2021-06-23 15:29:36.742187500,63.0,-6.0,3.0,115.633671875,10.51,0.061639875000000004,32.15
2021-06-23 15:29:36.750000000,63.0,-6.0,3.0,115.6275,10.26,0.06176,32.15
2021-06-23 15:29:36.757812500,63.0,-6.0,3.0,115.621328125,9.55,0.061800031250000005,32.15
2021-06-23 15:29:36.765625000,63.0,-6.0,3.0,115.61515625,8.84,0.0618400625,32.15
2021-06-23 15:29:36.773437500,63.0,-6.0,3.0,115.608984375,7.795,0.061880093750000004,32.15
2021-06-23 15:29:36.781250000,63.0,-6.0,3.0,115.6028125,6.75,0.061920125,32.15
2021-06-23 15:29:36.789062500,63.0,-6.0,3.0,115.596640625,5.470000000000001,0.06196015625,32.15
2021-06-23 15:29:36.796875000,63.0,-6.0,3.0,115.59046875,4.19,0.062000187500000005,32.15
2021-06-23 15:29:36.804687500,63.0,-6.0,3.0,115.584296875,2.8150000000000004,0.06204021875,32.15
2021-06-23 15:29:36.812500000,63.0,-6.0,3.0,115.578125,1.44,0.062080250000000003,32.15
2021-06-23 15:29:36.820312500,63.0,-6.0,3.0,115.57195312500001,0.22999999999999998,0.06212028125,32.15
2021-06-23 15:29:36.828125000,63.0,-6.0,3.0,115.56578125,-0.98,0.0621603125,32.15
2021-06-23 15:29:36.835937500,63.0,-6.0,3.0,115.55960937500001,-1.665,0.062200343750000005,32.15
2021-06-23 15:29:36.843750000,63.0,-6.0,3.0,115.5534375,-2.35,0.062240375,32.15
2021-06-23 15:29:36.851562500,63.0,-5.75,3.0,115.54726562500001,-2.12,0.06228040625,32.15
2021-06-23 15:29:36.859375000,63.0,-5.5,3.0,115.54109375,-1.89,0.0623204375,32.15
2021-06-23 15:29:36.867187500,63.0,-5.25,3.0,115.53492187500001,-0.47,0.06236046875,32.15
2021-06-23 15:29:36.875000000,63.0,-5.0,3.0,115.52875,0.95,0.0624005,32.15
2021-06-23 15:29:36.882812500,63.0,-5.0,3.0,115.52257812500001,3.55,0.06244053125,32.15
2021-06-23 15:29:36.890625000,63.0,-5.0,3.0,115.51640625,6.15,0.0624805625,32.15
2021-06-23 15:29:36.898437500,63.0,-5.0,3.0,115.51023437500001,9.600000000000001,0.06252059375,32.15
2021-06-23 15:29:36.906250000,63.0,-5.0,3.0,115.5040625,13.05,0.062560625,32.15
2021-06-23 15:29:36.914062500,63.0,-5.0,3.25,115.49789062500001,16.775,0.06260065625,32.15
2021-06-23 15:29:36.921875000,63.0,-5.0,3.5,115.49171875,20.5,0.0626406875,32.15
2021-06-23 15:29:36.929687500,63.0,-5.0,3.75,115.48554687500001,23.835,0.06268071875,32.15
2021-06-23 15:29:36.937500000,63.0,-5.0,4.0,115.479375,27.17,0.06272075,32.15
2021-06-23 15:29:36.945312500,63.0,-5.0,3.75,115.47320312500001,29.57,0.06276078125,32.15
2021-06-23 15:29:36.953125000,63.0,-5.0,3.5,115.46703125,31.97,0.0628008125,32.15
2021-06-23 15:29:36.960937500,63.0,-5.0,3.25,115.46085937500001,33.099999999999994,0.06284084375,32.15
2021-06-23 15:29:36.968750000,63.0,-5.0,3.0,115.4546875,34.23,0.062880875,32.15
2021-06-23 15:29:36.976562500,63.0,-5.25,3.0,115.44851562500001,34.084999999999994,0.06292090625,32.15
2021-06-23 15:29:36.984375000,63.0,-5.5,3.0,115.44234375,33.94,0.0629609375,32.15
2021-06-23 15:29:36.992187500,63.0,-5.75,3.0,115.43617187500001,32.79,0.06300096875,32.15
2021-06-23 15:29:37.000000000,63.0,-6.0,3.0,115.43,31.64,0.063041,32.15
2021-06-23 15:29:37.007812500,63.0,-6.0,3.25,115.42367187500001,29.935000000000002,0.06300096875,32.1503125
2021-06-23 15:29:37.015625000,63.0,-6.0,3.5,115.41734375,28.23,0.0629609375,32.150625
2021-06-23 15:29:37.023437500,63.0,-6.0,3.75,115.411015625,26.47,0.06292090625,32.1509375
2021-06-23 15:29:37.031250000,63.0,-6.0,4.0,115.40468750000001,24.71,0.062880875,32.15125
2021-06-23 15:29:37.039062500,63.0,-5.75,4.0,115.39835937500001,23.3,0.06284084375,32.1515625
2021-06-23 15:29:37.046875000,63.0,-5.5,4.0,115.39203125,21.89,0.0628008125,32.151875
2021-06-23 15:29:37.054687500,63.0,-5.25,4.0,115.385703125,21.07,0.06276078125,32.1521875
2021-06-23 15:29:37.062500000,63.0,-5.0,4.0,115.37937500000001,20.25,0.06272075,32.152499999999996
2021-06-23 15:29:37.070312500,63.0,-5.0,4.0,115.373046875,20.009999999999998,0.06268071875,32.152812499999996
2021-06-23 15:29:37.078125000,63.0,-5.0,4.0,115.36671875,19.77,0.0626406875,32.153124999999996
2021-06-23 15:29:37.085937500,63.0,-5.0,4.0,115.36039062500001,19.905,0.06260065625,32.153437499999995
2021-06-23 15:29:37.093750000,63.0,-5.0,4.0,115.35406250000001,20.04,0.062560625,32.153749999999995
2021-06-23 15:29:37.101562500,63.0,-4.75,4.0,115.347734375,20.244999999999997,0.06252059375,32.154062499999995
2021-06-23 15:29:37.109375000,63.0,-4.5,4.0,115.34140625,20.45,0.0624805625,32.154374999999995
2021-06-23 15:29:37.117187500,63.0,-4.25,4.0,115.33507812500001,20.445,0.06244053125,32.154687499999994
2021-06-23 15:29:37.125000000,63.0,-4.0,4.0,115.32875000000001,20.44,0.0624005,32.155
2021-06-23 15:29:37.132812500,63.0,-4.5,4.0,115.322421875,20.05,0.06236046875,32.1553125
2021-06-23 15:29:37.140625000,63.0,-5.0,4.0,115.31609375000001,19.66,0.0623204375,32.155625
2021-06-23 15:29:37.148437500,63.0,-5.5,4.0,115.30976562500001,18.884999999999998,0.06228040625,32.1559375
2021-06-23 15:29:37.156250000,63.0,-6.0,4.0,115.3034375,18.11,0.062240375,32.15625
2021-06-23 15:29:37.164062500,63.0,-6.25,4.0,115.297109375,17.13,0.062200343750000005,32.1565625
2021-06-23 15:29:37.171875000,63.0,-6.5,4.0,115.29078125000001,16.15,0.0621603125,32.156875
2021-06-23 15:29:37.179687500,63.0,-6.75,4.0,115.28445312500001,15.2,0.06212028125,32.1571875
2021-06-23 15:29:37.187500000,63.0,-7.0,4.0,115.278125,14.25,0.062080250000000003,32.1575
2021-06-23 15:29:37.195312500,63.0,-6.75,4.0,115.271796875,13.535,0.06204021875,32.1578125
2021-06-23 15:29:37.203125000,63.0,-6.5,4.0,115.26546875000001,12.82,0.062000187500000005,32.158125
2021-06-23 15:29:37.210937500,63.0,-6.25,4.0,115.259140625,12.415,0.06196015625,32.1584375
2021-06-23 15:29:37.218750000,63.0,-6.0,4.0,115.2528125,12.01,0.061920125,32.15875
2021-06-23 15:29:37.226562500,63.0,-6.0,3.75,115.24648437500001,11.844999999999999,0.061880093750000004,32.1590625
2021-06-23 15:29:37.234375000,63.0,-6.0,3.5,115.24015625000001,11.68,0.0618400625,32.159375
2021-06-23 15:29:37.242187500,63.0,-6.0,3.25,115.233828125,11.559999999999999,0.061800031250000005,32.1596875
2021-06-23 15:29:37.250000000,63.0,-6.0,3.0,115.2275,11.44,0.06176,32.16
2021-06-23 15:29:37.257812500,63.0,-6.0,3.25,115.22117187500001,11.11,0.06159984375,32.16
2021-06-23 15:29:37.265625000,63.0,-6.0,3.5,115.21484375,10.78,0.0614396875,32.16
2021-06-23 15:29:37.273437500,63.0,-6.0,3.75,115.208515625,10.04,0.061279531250000005,32.16
2021-06-23 15:29:37.281250000,63.0,-6.0,4.0,115.20218750000001,9.3,0.061119375000000004,32.16
2021-06-23 15:29:37.289062500,63.0,-6.0,4.0,115.19585937500001,8.02,0.06095921875,32.16
2021-06-23 15:29:37.296875000,63.0,-6.0,4.0,115.18953125,6.74,0.0607990625,32.16
2021-06-23 15:29:37.304687500,63.0,-6.0,4.0,115.183203125,4.96,0.06063890625,32.16
2021-06-23 15:29:37.312500000,63.0,-6.0,4.0,115.17687500000001,3.18,0.06047875,32.16
2021-06-23 15:29:37.320312500,63.0,-6.0,4.0,115.170546875,1.12,0.06031859375,32.16
2021-06-23 15:29:37.328125000,63.0,-6.0,4.0,115.16421875,-0.94,0.0601584375,32.16
2021-06-23 15:29:37.335937500,63.0,-6.0,4.0,115.15789062500001,-2.9000000000000004,0.05999828125,32.16
2021-06-23 15:29:37.343750000,63.0,-6.0,4.0,115.15156250000001,-4.86,0.059838125,32.16
2021-06-23 15:29:37.351562500,63.0,-6.0,4.0,115.145234375,-6.23,0.05967796875,32.16
2021-06-23 15:29:37.359375000,63.0,-6.0,4.0,115.13890625,-7.6,0.0595178125,32.16
2021-06-23 15:29:37.367187500,63.0,-6.0,4.0,115.13257812500001,-7.944999999999999,0.05935765625,32.16
2021-06-23 15:29:37.375000000,63.0,-6.0,4.0,115.12625,-8.29,0.0591975,32.16
2021-06-23 15:29:37.382812500,63.0,-6.0,4.0,115.119921875,-7.369999999999999,0.05903734375,32.16
2021-06-23 15:29:37.390625000,63.0,-6.0,4.0,115.11359375,-6.45,0.0588771875,32.16
2021-06-23 15:29:37.398437500,63.0,-6.0,4.0,115.10726562500001,-4.345000000000001,0.05871703125,32.16
2021-06-23 15:29:37.406250000,63.0,-6.0,4.0,115.1009375,-2.24,0.058556875,32.16
2021-06-23 15:29:37.414062500,63.0,-5.75,4.0,115.094609375,0.6449999999999996,0.05839671875,32.16
2021-06-23 15:29:37.421875000,63.0,-5.5,4.0,115.08828125000001,3.53,0.0582365625,32.16
2021-06-23 15:29:37.429687500,63.0,-5.25,4.0,115.08195312500001,6.59,0.05807640625,32.16
2021-06-23 15:29:37.437500000,63.0,-5.0,4.0,115.075625,9.65,0.05791625,32.16
2021-06-23 15:29:37.445312500,63.0,-5.25,4.0,115.069296875,12.225000000000001,0.05775609375,32.16
2021-06-23 15:29:37.453125000,63.0,-5.5,4.0,115.06296875000001,14.8,0.0575959375,32.16
2021-06-23 15:29:37.460937500,63.0,-5.75,4.0,115.056640625,16.39,0.05743578125,32.16
2021-06-23 15:29:37.468750000,63.0,-6.0,4.0,115.0503125,17.98,0.057275625,32.16
2021-06-23 15:29:37.476562500,63.0,-6.0,4.0,115.04398437500001,18.335,0.057115468749999995,32.16
2021-06-23 15:29:37.484375000,63.0,-6.0,4.0,115.03765625000001,18.69,0.0569553125,32.16
2021-06-23 15:29:37.492187500,63.0,-6.0,4.0,115.031328125,17.835,0.05679515625,32.16
2021-06-23 15:29:37.500000000,63.0,-6.0,4.0,115.025,16.98,0.056635,32.16
2021-06-23 15:29:37.507812500,63.0,-6.0,4.0,115.01867187500001,15.215,0.056835187499999995,32.16
2021-06-23 15:29:37.515625000,63.0,-6.0,4.0,115.01234375,13.45,0.057035375,32.16
2021-06-23 15:29:37.523437500,63.0,-6.0,4.0,115.006015625,11.274999999999999,0.057235562499999997,32.16
2021-06-23 15:29:37.531250000,63.0,-6.0,4.0,114.99968750000001,9.1,0.05743575,32.16
2021-06-23 15:29:37.539062500,63.0,-6.0,4.0,114.99335937500001,7.105,0.0576359375,32.16
2021-06-23 15:29:37.546875000,63.0,-6.0,4.0,114.98703125,5.11,0.057836124999999995,32.16
2021-06-23 15:29:37.554687500,63.0,-6.0,4.0,114.980703125,3.865,0.0580363125,32.16
2021-06-23 15:29:37.562500000,63.0,-6.0,4.0,114.97437500000001,2.62,0.0582365,32.16
2021-06-23 15:29:37.570312500,63.0,-6.0,4.0,114.968046875,2.4699999999999998,0.0584366875,32.16
2021-06-23 15:29:37.578125000,63.0,-6.0,4.0,114.96171875,2.32,0.058636875,32.16
2021-06-23 15:29:37.585937500,63.0,-6.0,4.0,114.955390625,3.295,0.058837062499999995,32.16
2021-06-23 15:29:37.593750000,63.0,-6.0,4.0,114.94906250000001,4.27,0.05903725,32.16
2021-06-23 15:29:37.601562500,63.0,-6.0,4.0,114.942734375,6.06,0.0592374375,32.16
2021-06-23 15:29:37.609375000,63.0,-6.0,4.0,114.93640625,7.85,0.059437625,32.16
2021-06-23 15:29:37.617187500,63.0,-6.0,4.0,114.93007812500001,9.93,0.0596378125,32.16
2021-06-23 15:29:37.625000000,63.0,-6.0,4.0,114.92375000000001,12.01,0.059838,32.16
2021-06-23 15:29:37.632812500,63.0,-6.0,4.0,114.917421875,13.82,0.0600381875,32.16
2021-06-23 15:29:37.640625000,63.0,-6.0,4.0,114.91109375,15.63,0.060238375,32.16
2021-06-23 15:29:37.648437500,63.0,-6.0,4.0,114.90476562500001,16.775000000000002,0.0604385625,32.16
2021-06-23 15:29:37.656250000,63.0,-6.0,4.0,114.8984375,17.92,0.06063875,32.16
2021-06-23 15:29:37.664062500,63.0,-6.0,4.0,114.892109375,18.235,0.060838937499999995,32.16
2021-06-23 15:29:37.671875000,63.0,-6.0,4.0,114.88578125000001,18.55,0.061039125,32.16
2021-06-23 15:29:37.679687500,63.0,-6.0,4.0,114.87945312500001,18.09,0.0612393125,32.16
2021-06-23 15:29:37.687500000,63.0,-6.0,4.0,114.873125,17.63,0.0614395,32.16
2021-06-23 15:29:37.695312500,63.0,-5.75,4.0,114.866796875,16.53,0.0616396875,32.16
2021-06-23 15:29:37.703125000,63.0,-5.5,4.0,114.86046875000001,15.43,0.061839875,32.16
2021-06-23 15:29:37.710937500,63.0,-5.25,4.0,114.854140625,13.815,0.0620400625,32.16
2021-06-23 15:29:37.718750000,63.0,-5.0,4.0,114.8478125,12.2,0.06224025,32.16
2021-06-23 15:29:37.726562500,63.0,-5.0,4.0,114.84148437500001,10.105,0.0624404375,32.16
2021-06-23 15:29:37.734375000,63.0,-5.0,4.0,114.83515625000001,8.01,0.062640625,32.16
2021-06-23 15:29:37.742187500,63.0,-5.0,4.0,114.828828125,5.43,0.0628408125,32.16
2021-06-23 15:29:37.750000000,63.0,-5.0,4.0,114.8225,2.85,0.063041,32.16
2021-06-23 15:29:37.757812500,63.0,-5.25,4.0,114.81617187500001,-0.20499999999999963,0.063041,32.16
2021-06-23 15:29:37.765625000,63.0,-5.5,4.0,114.80984375,-3.26,0.063041,32.16
2021-06-23 15:29:37.773437500,63.0,-5.75,4.0,114.803515625,-6.64,0.063041,32.16
2021-06-23 15:29:37.781250000,63.0,-6.0,4.0,114.7971875,-10.02,0.063041,32.16
2021-06-23 15:29:37.789062500,63.0,-6.0,4.0,114.79085937500001,-13.44,0.063041,32.16
2021-06-23 15:29:37.796875000,63.0,-6.0,4.0,114.78453125,-16.86,0.063041,32.16
2021-06-23 15:29:37.804687500,63.0,-6.0,4.0,114.778203125,-19.935000000000002,0.063041,32.16
2021-06-23 15:29:37.812500000,63.0,-6.0,4.0,114.77187500000001,-23.01,0.063041,32.16
2021-06-23 15:29:37.820312500,63.0,-5.75,4.0,114.765546875,-25.325000000000003,0.063041,32.16
2021-06-23 15:29:37.828125000,63.0,-5.5,4.0,114.75921875,-27.64,0.063041,32.16
2021-06-23 15:29:37.835937500,63.0,-5.25,4.0,114.752890625,-28.9,0.063041,32.16
2021-06-23 15:29:37.843750000,63.0,-5.0,4.0,114.74656250000001,-30.16,0.063041,32.16
2021-06-23 15:29:37.851562500,63.0,-5.0,4.0,114.740234375,-30.240000000000002,0.063041,32.16
2021-06-23 15:29:37.859375000,63.0,-5.0,4.0,114.73390625,-30.32,0.063041,32.16
2021-06-23 15:29:37.867187500,63.0,-5.0,4.0,114.72757812500001,-29.29,0.063041,32.16
2021-06-23 15:29:37.875000000,63.0,-5.0,4.0,114.72125,-28.26,0.063041,32.16
2021-06-23 15:29:37.882812500,63.0,-5.25,4.0,114.714921875,-26.305,0.063041,32.16
2021-06-23 15:29:37.890625000,63.0,-5.5,4.0,114.70859375,-24.35,0.063041,32.16
2021-06-23 15:29:37.898437500,63.0,-5.75,4.0,114.70226562500001,-21.715,0.063041,32.16
2021-06-23 15:29:37.906250000,63.0,-6.0,4.0,114.6959375,-19.08,0.063041,32.16
2021-06-23 15:29:37.914062500,63.0,-6.0,4.0,114.689609375,-15.969999999999999,0.063041,32.16
2021-06-23 15:29:37.921875000,63.0,-6.0,4.0,114.68328125000001,-12.86,0.063041,32.16
2021-06-23 15:29:37.929687500,63.0,-6.0,4.0,114.67695312500001,-9.48,0.063041,32.16
2021-06-23 15:29:37.937500000,63.0,-6.0,4.0,114.670625,-6.1,0.063041,32.16
2021-06-23 15:29:37.945312500,63.0,-5.75,4.0,114.664296875,-2.675,0.063041,32.16
2021-06-23 15:29:37.953125000,63.0,-5.5,4.0,114.65796875000001,0.75,0.063041,32.16
2021-06-23 15:29:37.960937500,63.0,-5.25,4.0,114.651640625,3.925,0.063041,32.16
2021-06-23 15:29:37.968750000,63.0,-5.0,4.0,114.6453125,7.1,0.063041,32.16
2021-06-23 15:29:37.976562500,63.0,-5.25,4.0,114.638984375,9.645,0.063041,32.16
2021-06-23 15:29:37.984375000,63.0,-5.5,4.0,114.63265625000001,12.19,0.063041,32.16
2021-06-23 15:29:37.992187500,63.0,-5.75,4.0,114.626328125,13.75,0.063041,32.16
2021-06-23 15:29:38.000000000,63.0,-6.0,4.0,114.62,15.31,0.063041,32.16
2021-06-23 15:29:38.007812500,63.0,-5.75,4.0,114.61304687500001,15.629999999999999,0.06288084375,32.16
2021-06-23 15:29:38.015625000,63.0,-5.5,4.0,114.60609375,15.95,0.0627206875,32.16
2021-06-23 15:29:38.023437500,63.0,-5.25,4.0,114.599140625,14.995,0.06256053125,32.16
2021-06-23 15:29:38.031250000,63.0,-5.0,4.0,114.59218750000001,14.04,0.062400375,32.16
2021-06-23 15:29:38.039062500,63.0,-5.0,4.0,114.585234375,12.015,0.06224021875,32.16
2021-06-23 15:29:38.046875000,63.0,-5.0,4.0,114.57828125,9.99,0.0620800625,32.16
2021-06-23 15:29:38.054687500,63.0,-5.0,4.0,114.57132812500001,7.285,0.061919906250000004,32.16
2021-06-23 15:29:38.062500000,63.0,-5.0,4.0,114.564375,4.58,0.06175975,32.16
2021-06-23 15:29:38.070312500,63.0,-5.25,4.0,114.557421875,1.67,0.06159959375,32.16
2021-06-23 15:29:38.078125000,63.0,-5.5,4.0,114.55046875000001,-1.24,0.0614394375,32.16
2021-06-23 15:29:38.085937500,63.0,-5.75,4.0,114.543515625,-3.8999999999999995,0.06127928125,32.16
2021-06-23 15:29:38.093750000,63.0,-6.0,4.0,114.5365625,-6.56,0.061119125,32.16
2021-06-23 15:29:38.101562500,63.0,-6.0,4.0,114.529609375,-8.67,0.06095896875,32.16
2021-06-23 15:29:38.109375000,63.0,-6.0,4.0,114.52265625000001,-10.78,0.0607988125,32.16
2021-06-23 15:29:38.117187500,63.0,-6.0,4.0,114.515703125,-12.21,0.06063865625,32.16
2021-06-23 15:29:38.125000000,63.0,-6.0,4.0,114.50875,-13.64,0.060478500000000004,32.16
2021-06-23 15:29:38.132812500,63.0,-6.0,4.0,114.50179687500001,-14.4,0.06031834375,32.16
2021-06-23 15:29:38.140625000,63.0,-6.0,4.0,114.49484375,-15.16,0.0601581875,32.16
2021-06-23 15:29:38.148437500,63.0,-6.0,4.0,114.487890625,-15.370000000000001,0.05999803125,32.16
2021-06-23 15:29:38.156250000,63.0,-6.0,4.0,114.48093750000001,-15.58,0.059837875,32.16
2021-06-23 15:29:38.164062500,63.0,-6.0,4.0,114.473984375,-15.395,0.059677718750000004,32.16
2021-06-23 15:29:38.171875000,63.0,-6.0,4.0,114.46703125,-15.21,0.0595175625,32.16
2021-06-23 15:29:38.179687500,63.0,-6.0,4.0,114.46007812500001,-14.780000000000001,0.05935740625,32.16
2021-06-23 15:29:38.187500000,63.0,-6.0,4.0,114.453125,-14.35,0.05919725,32.16
2021-06-23 15:29:38.195312500,63.0,-5.75,4.25,114.446171875,-13.780000000000001,0.059037093750000005,32.16
2021-06-23 15:29:38.203125000,63.0,-5.5,4.5,114.43921875000001,-13.21,0.058876937500000004,32.16
2021-06-23 15:29:38.210937500,63.0,-5.25,4.75,114.432265625,-12.600000000000001,0.05871678125,32.16
2021-06-23 15:29:38.218750000,63.0,-5.0,5.0,114.4253125,-11.99,0.058556625,32.16
2021-06-23 15:29:38.226562500,63.0,-5.25,4.75,114.41835937500001,-11.42,0.05839646875,32.16
2021-06-23 15:29:38.234375000,63.0,-5.5,4.5,114.41140625,-10.85,0.0582363125,32.16
2021-06-23 15:29:38.242187500,63.0,-5.75,4.25,114.404453125,-10.33,0.058076156250000004,32.16
2021-06-23 15:29:38.250000000,63.0,-6.0,4.0,114.39750000000001,-9.81,0.057916,32.16
2021-06-23 15:29:38.257812500,63.0,-6.0,4.0,114.390546875,-9.295,0.058036125,32.16
2021-06-23 15:29:38.265625000,63.0,-6.0,4.0,114.38359375,-8.78,0.05815625,32.16
2021-06-23 15:29:38.273437500,63.0,-6.0,4.0,114.37664062500001,-8.175,0.058276375000000005,32.16
2021-06-23 15:29:38.281250000,63.0,-6.0,4.0,114.3696875,-7.57,0.058396500000000004,32.16
2021-06-23 15:29:38.289062500,63.0,-6.0,4.0,114.362734375,-6.79,0.058516625,32.16
2021-06-23 15:29:38.296875000,63.0,-6.0,4.0,114.35578125,-6.01,0.05863675,32.16
2021-06-23 15:29:38.304687500,63.0,-6.0,4.0,114.34882812500001,-5.04,0.058756875,32.16
2021-06-23 15:29:38.312500000,63.0,-6.0,4.0,114.341875,-4.07,0.058877,32.16
2021-06-23 15:29:38.320312500,63.0,-5.75,4.0,114.334921875,-2.9850000000000003,0.058997125000000004,32.16
2021-06-23 15:29:38.328125000,63.0,-5.5,4.0,114.32796875000001,-1.9,0.05911725,32.16
2021-06-23 15:29:38.335937500,63.0,-5.25,4.0,114.321015625,-0.73,0.059237375,32.16
2021-06-23 15:29:38.343750000,63.0,-5.0,4.0,114.3140625,0.44,0.0593575,32.16
2021-06-23 15:29:38.351562500,63.0,-5.25,4.0,114.30710937500001,1.78,0.059477625,32.16
2021-06-23 15:29:38.359375000,63.0,-5.5,4.0,114.30015625,3.12,0.059597750000000005,32.16
2021-06-23 15:29:38.367187500,63.0,-5.75,4.0,114.293203125,4.885,0.059717875000000004,32.16
2021-06-23 15:29:38.375000000,63.0,-6.0,4.0,114.28625000000001,6.65,0.059838,32.16
2021-06-23 15:29:38.382812500,63.0,-5.75,4.0,114.279296875,9.16,0.059958125,32.16
2021-06-23 15:29:38.390625000,63.0,-5.5,4.0,114.27234375,11.67,0.06007825,32.16
2021-06-23 15:29:38.398437500,63.0,-5.25,4.0,114.26539062500001,15.100000000000001,0.060198375000000005,32.16
2021-06-23 15:29:38.406250000,63.0,-5.0,4.0,114.2584375,18.53,0.060318500000000004,32.16
2021-06-23 15:29:38.414062500,63.0,-5.0,4.0,114.251484375,22.740000000000002,0.060438625,32.16
2021-06-23 15:29:38.421875000,63.0,-5.0,4.0,114.24453125000001,26.95,0.06055875,32.16
2021-06-23 15:29:38.429687500,63.0,-5.0,4.0,114.237578125,31.445,0.060678875,32.16
2021-06-23 15:29:38.437500000,63.0,-5.0,4.0,114.230625,35.94,0.060799000000000006,32.16
2021-06-23 15:29:38.445312500,63.0,-5.25,4.0,114.22367187500001,40.03,0.060919125000000005,32.16
2021-06-23 15:29:38.453125000,63.0,-5.5,4.0,114.21671875,44.12,0.06103925,32.16
2021-06-23 15:29:38.460937500,63.0,-5.75,4.0,114.209765625,47.165,0.061159375,32.16
2021-06-23 15:29:38.468750000,63.0,-6.0,4.0,114.20281250000001,50.21,0.0612795,32.16
2021-06-23 15:29:38.476562500,63.0,-6.0,4.0,114.195859375,51.84,0.061399625,32.16
2021-06-23 15:29:38.484375000,63.0,-6.0,4.0,114.18890625,53.47,0.061519750000000005,32.16
2021-06-23 15:29:38.492187500,63.0,-6.0,4.0,114.181953125,53.605000000000004,0.061639875000000004,32.16
2021-06-23 15:29:38.500000000,63.0,-6.0,4.0,114.17500000000001,53.74,0.06176,32.16
2021-06-23 15:29:38.507812500,63.0,-6.0,4.0,114.168046875,52.540000000000006,0.06171996875,32.16
2021-06-23 15:29:38.515625000,63.0,-6.0,4.0,114.16109375,51.34,0.061679937500000004,32.16
2021-06-23 15:29:38.523437500,63.0,-6.0,4.0,114.15414062500001,49.015,0.06163990625,32.16
2021-06-23 15:29:38.531250000,63.0,-6.0,4.0,114.1471875,46.69,0.061599875,32.16
2021-06-23 15:29:38.539062500,63.0,-6.0,4.0,114.140234375,43.459999999999994,0.06155984375,32.16
2021-06-23 15:29:38.546875000,63.0,-6.0,4.0,114.13328125000001,40.23,0.0615198125,32.16
2021-06-23 15:29:38.554687500,63.0,-6.0,4.0,114.126328125,36.334999999999994,0.061479781250000004,32.16
2021-06-23 15:29:38.562500000,63.0,-6.0,4.0,114.119375,32.44,0.06143975,32.16
2021-06-23 15:29:38.570312500,63.0,-6.0,4.0,114.11242187500001,28.214999999999996,0.06139971875,32.16
2021-06-23 15:29:38.578125000,63.0,-6.0,4.0,114.10546875,23.99,0.0613596875,32.16
2021-06-23 15:29:38.585937500,63.0,-6.0,4.0,114.098515625,19.905,0.06131965625,32.16
2021-06-23 15:29:38.593750000,63.0,-6.0,4.0,114.09156250000001,15.82,0.061279625000000004,32.16
2021-06-23 15:29:38.601562500,63.0,-6.0,4.0,114.084609375,12.370000000000001,0.06123959375,32.16
2021-06-23 15:29:38.609375000,63.0,-6.0,4.0,114.07765625,8.92,0.0611995625,32.16
2021-06-23 15:29:38.617187500,63.0,-6.0,4.0,114.07070312500001,6.484999999999999,0.06115953125,32.16
2021-06-23 15:29:38.625000000,63.0,-6.0,4.0,114.06375,4.05,0.0611195,32.16
2021-06-23 15:29:38.632812500,63.0,-6.0,4.0,114.056796875,2.735,0.06107946875,32.16
2021-06-23 15:29:38.640625000,63.0,-6.0,4.0,114.04984375000001,1.42,0.0610394375,32.16
2021-06-23 15:29:38.648437500,63.0,-6.0,4.0,114.042890625,1.05,0.06099940625,32.16
2021-06-23 15:29:38.656250000,63.0,-6.0,4.0,114.0359375,0.68,0.060959374999999996,32.16
2021-06-23 15:29:38.664062500,63.0,-6.0,4.0,114.02898437500001,0.845,0.06091934375,32.16
2021-06-23 15:29:38.671875000,63.0,-6.0,4.0,114.02203125,1.01,0.0608793125,32.16
2021-06-23 15:29:38.679687500,63.0,-6.0,4.0,114.015078125,1.24,0.06083928125,32.16
2021-06-23 15:29:38.687500000,63.0,-6.0,4.0,114.008125,1.47,0.06079925,32.16
2021-06-23 15:29:38.695312500,63.0,-6.0,4.0,114.001171875,1.4,0.060759218749999996,32.16
2021-06-23 15:29:38.703125000,63.0,-6.0,4.0,113.99421875,1.33,0.0607191875,32.16
2021-06-23 15:29:38.710937500,63.0,-6.0,4.0,113.987265625,0.79,0.06067915625,32.16
2021-06-23 15:29:38.718750000,63.0,-6.0,4.0,113.98031250000001,0.25,0.060639125,32.16
2021-06-23 15:29:38.726562500,63.0,-6.0,4.0,113.973359375,-0.7650000000000001,0.06059909375,32.16
2021-06-23 15:29:38.734375000,63.0,-6.0,4.0,113.96640625,-1.78,0.0605590625,32.16
2021-06-23 15:29:38.742187500,63.0,-6.0,4.0,113.95945312500001,-3.125,0.06051903125,32.16
2021-06-23 15:29:38.750000000,63.0,-6.0,4.0,113.9525,-4.47,0.060479,32.16
2021-06-23 15:29:38.757812500,63.0,-6.0,4.0,113.945546875,-5.93,0.06051903125,32.16
2021-06-23 15:29:38.765625000,63.0,-6.0,4.0,113.93859375000001,-7.39,0.0605590625,32.16
2021-06-23 15:29:38.773437500,63.0,-6.0,4.0,113.931640625,-8.754999999999999,0.06059909375,32.16
2021-06-23 15:29:38.781250000,63.0,-6.0,4.0,113.9246875,-10.12,0.060639125,32.16
2021-06-23 15:29:38.789062500,63.0,-6.0,4.0,113.91773437500001,-11.145,0.06067915625,32.16
2021-06-23 15:29:38.796875000,63.0,-6.0,4.0,113.91078125,-12.17,0.0607191875,32.16
2021-06-23 15:29:38.804687500,63.0,-6.0,4.0,113.903828125,-12.620000000000001,0.060759218749999996,32.16
2021-06-23 15:29:38.812500000,63.0,-6.0,4.0,113.89687500000001,-13.07,0.06079925,32.16
2021-06-23 15:29:38.820312500,63.0,-6.0,4.0,113.889921875,-12.745000000000001,0.06083928125,32.16
2021-06-23 15:29:38.828125000,63.0,-6.0,4.0,113.88296875,-12.42,0.0608793125,32.16
2021-06-23 15:29:38.835937500,63.0,-6.0,4.0,113.87601562500001,-11.254999999999999,0.06091934375,32.16
2021-06-23 15:29:38.843750000,63.0,-6.0,4.0,113.8690625,-10.09,0.060959374999999996,32.16
2021-06-23 15:29:38.851562500,63.0,-6.0,4.0,113.862109375,-8.24,0.06099940625,32.16
2021-06-23 15:29:38.859375000,63.0,-6.0,4.0,113.85515625000001,-6.39,0.0610394375,32.16
2021-06-23 15:29:38.867187500,63.0,-6.0,4.0,113.848203125,-4.245,0.06107946875,32.16
2021-06-23 15:29:38.875000000,63.0,-6.0,4.0,113.84125,-2.1,0.0611195,32.16
2021-06-23 15:29:38.882812500,63.0,-6.0,4.0,113.834296875,-0.15500000000000003,0.06115953125,32.16
2021-06-23 15:29:38.890625000,63.0,-6.0,4.0,113.82734375,1.79,0.0611995625,32.16
2021-06-23 15:29:38.898437500,63.0,-6.0,4.0,113.820390625,3.125,0.06123959375,32.16
2021-06-23 15:29:38.906250000,63.0,-6.0,4.0,113.8134375,4.46,0.061279625000000004,32.16
2021-06-23 15:29:38.914062500,63.0,-6.0,4.25,113.80648437500001,5.045,0.06131965625,32.16
2021-06-23 15:29:38.921875000,63.0,-6.0,4.5,113.79953125,5.63,0.0613596875,32.16
2021-06-23 15:29:38.929687500,63.0,-6.0,4.75,113.792578125,5.66,0.06139971875,32.16
2021-06-23 15:29:38.937500000,63.0,-6.0,5.0,113.78562500000001,5.69,0.06143975,32.16
2021-06-23 15:29:38.945312500,63.0,-5.75,4.75,113.778671875,5.525,0.061479781250000004,32.16
2021-06-23 15:29:38.953125000,63.0,-5.5,4.5,113.77171875,5.36,0.0615198125,32.16
2021-06-23 15:29:38.960937500,63.0,-5.25,4.25,113.76476562500001,5.355,0.06155984375,32.16
2021-06-23 15:29:38.968750000,63.0,-5.0,4.0,113.7578125,5.35,0.061599875,32.16
2021-06-23 15:29:38.976562500,63.0,-5.0,4.0,113.750859375,5.65,0.06163990625,32.16
2021-06-23 15:29:38.984375000,63.0,-5.0,4.0,113.74390625000001,5.95,0.061679937500000004,32.16
2021-06-23 15:29:38.992187500,63.0,-5.0,4.0,113.736953125,6.445,0.06171996875,32.16
2021-06-23 15:29:39.000000000,63.0,-5.0,4.0,113.73,6.94,0.06176,32.16
2021-06-23 15:29:39.007812500,63.0,-5.25,4.0,113.72367187500001,7.375,0.061800031250000005,32.1590625
2021-06-23 15:29:39.015625000,63.0,-5.5,4.0,113.71734375,7.81,0.0618400625,32.158125
2021-06-23 15:29:39.023437500,63.0,-5.75,4.0,113.711015625,7.949999999999999,0.061880093750000004,32.1571875
2021-06-23 15:29:39.031250000,63.0,-6.0,4.0,113.7046875,8.09,0.061920125,32.15625
2021-06-23 15:29:39.039062500,63.0,-6.0,4.0,113.69835937500001,7.835,0.06196015625,32.1553125
2021-06-23 15:29:39.046875000,63.0,-6.0,4.0,113.69203125,7.58,0.062000187500000005,32.154374999999995
2021-06-23 15:29:39.054687500,63.0,-6.0,4.0,113.685703125,6.99,0.06204021875,32.153437499999995
2021-06-23 15:29:39.062500000,63.0,-6.0,4.0,113.67937500000001,6.4,0.062080250000000003,32.152499999999996
2021-06-23 15:29:39.070312500,63.0,-5.75,4.0,113.673046875,5.615,0.06212028125,32.1515625
2021-06-23 15:29:39.078125000,63.0,-5.5,4.0,113.66671875,4.83,0.0621603125,32.150625
2021-06-23 15:29:39.085937500,63.0,-5.25,4.0,113.660390625,3.955,0.062200343750000005,32.1496875
2021-06-23 15:29:39.093750000,63.0,-5.0,4.0,113.65406250000001,3.08,0.062240375,32.14875
2021-06-23 15:29:39.101562500,63.0,-5.25,4.25,113.647734375,2.165,0.06228040625,32.1478125
2021-06-23 15:29:39.109375000,63.0,-5.5,4.5,113.64140625,1.25,0.0623204375,32.146875
2021-06-23 15:29:39.117187500,63.0,-5.75,4.75,113.635078125,0.30499999999999994,0.06236046875,32.1459375
2021-06-23 15:29:39.125000000,63.0,-6.0,5.0,113.62875,-0.64,0.0624005,32.144999999999996
2021-06-23 15:29:39.132812500,63.0,-6.0,4.75,113.622421875,-1.645,0.06244053125,32.1440625
2021-06-23 15:29:39.140625000,63.0,-6.0,4.5,113.61609375,-2.65,0.0624805625,32.143125
2021-06-23 15:29:39.148437500,63.0,-6.0,4.25,113.60976562500001,-3.6950000000000003,0.06252059375,32.1421875
2021-06-23 15:29:39.156250000,63.0,-6.0,4.0,113.6034375,-4.74,0.062560625,32.14125
2021-06-23 15:29:39.164062500,63.0,-5.75,4.0,113.597109375,-5.8149999999999995,0.06260065625,32.1403125
2021-06-23 15:29:39.171875000,63.0,-5.5,4.0,113.59078125,-6.89,0.0626406875,32.139375
2021-06-23 15:29:39.179687500,63.0,-5.25,4.0,113.58445312500001,-8.01,0.06268071875,32.1384375
2021-06-23 15:29:39.187500000,63.0,-5.0,4.0,113.578125,-9.13,0.06272075,32.1375
2021-06-23 15:29:39.195312500,63.0,-5.25,4.0,113.571796875,-10.355,0.06276078125,32.136562500000004
2021-06-23 15:29:39.203125000,63.0,-5.5,4.0,113.56546875000001,-11.58,0.0628008125,32.135625000000005
2021-06-23 15:29:39.210937500,63.0,-5.75,4.0,113.559140625,-12.975,0.06284084375,32.1346875
2021-06-23 15:29:39.218750000,63.0,-6.0,4.0,113.5528125,-14.37,0.062880875,32.13375
2021-06-23 15:29:39.226562500,63.0,-5.75,4.0,113.546484375,-15.985,0.06292090625,32.1328125
2021-06-23 15:29:39.234375000,63.0,-5.5,4.0,113.54015625000001,-17.6,0.0629609375,32.131875
2021-06-23 15:29:39.242187500,63.0,-5.25,4.0,113.533828125,-19.365000000000002,0.06300096875,32.1309375
2021-06-23 15:29:39.250000000,63.0,-5.0,4.0,113.5275,-21.13,0.063041,32.13
2021-06-23 15:29:39.257812500,63.0,-5.0,4.0,113.52117187500001,-22.81,0.06288084375,32.13
2021-06-23 15:29:39.265625000,63.0,-5.0,4.0,113.51484375,-24.49,0.0627206875,32.13
2021-06-23 15:29:39.273437500,63.0,-5.0,4.0,113.508515625,-25.695,0.06256053125,32.13
2021-06-23 15:29:39.281250000,63.0,-5.0,4.0,113.5021875,-26.9,0.062400375,32.13
2021-06-23 15:29:39.289062500,62.75,-5.25,4.0,113.49585937500001,-27.145,0.06224021875,32.13
2021-06-23 15:29:39.296875000,62.5,-5.5,4.0,113.48953125,-27.39,0.0620800625,32.13
2021-06-23 15:29:39.304687500,62.25,-5.75,4.0,113.483203125,-26.245,0.061919906250000004,32.13
2021-06-23 15:29:39.312500000,62.0,-6.0,4.0,113.476875,-25.1,0.06175975,32.13
2021-06-23 15:29:39.320312500,62.25,-6.0,4.0,113.470546875,-22.37,0.06159959375,32.13
2021-06-23 15:29:39.328125000,62.5,-6.0,4.0,113.46421875,-19.64,0.0614394375,32.13
2021-06-23 15:29:39.335937500,62.75,-6.0,4.0,113.457890625,-15.465,0.06127928125,32.13
2021-06-23 15:29:39.343750000,63.0,-6.0,4.0,113.45156250000001,-11.29,0.061119125,32.13
2021-06-23 15:29:39.351562500,63.0,-5.75,4.0,113.445234375,-6.1899999999999995,0.06095896875,32.13
2021-06-23 15:29:39.359375000,63.0,-5.5,4.0,113.43890625,-1.09,0.0607988125,32.13
2021-06-23 15:29:39.367187500,63.0,-5.25,4.0,113.432578125,4.205,0.06063865625,32.13
2021-06-23 15:29:39.375000000,63.0,-5.0,4.0,113.42625000000001,9.5,0.060478500000000004,32.13
2021-06-23 15:29:39.382812500,63.0,-5.25,4.0,113.419921875,14.19,0.06031834375,32.13
2021-06-23 15:29:39.390625000,63.0,-5.5,4.0,113.41359375,18.88,0.0601581875,32.13
2021-06-23 15:29:39.398437500,63.0,-5.75,4.0,113.40726562500001,22.375,0.05999803125,32.13
2021-06-23 15:29:39.406250000,63.0,-6.0,4.0,113.4009375,25.87,0.059837875,32.13
2021-06-23 15:29:39.414062500,63.0,-6.0,4.0,113.394609375,27.875,0.059677718750000004,32.13
2021-06-23 15:29:39.421875000,63.0,-6.0,4.0,113.38828125,29.88,0.0595175625,32.13
2021-06-23 15:29:39.429687500,63.0,-6.0,4.0,113.38195312500001,30.435,0.05935740625,32.13
2021-06-23 15:29:39.437500000,63.0,-6.0,4.0,113.375625,30.99,0.05919725,32.13
2021-06-23 15:29:39.445312500,63.0,-6.0,4.0,113.369296875,30.38,0.059037093750000005,32.13
2021-06-23 15:29:39.453125000,63.0,-6.0,4.0,113.36296875000001,29.77,0.058876937500000004,32.13
2021-06-23 15:29:39.460937500,63.0,-6.0,4.0,113.356640625,28.384999999999998,0.05871678125,32.13
2021-06-23 15:29:39.468750000,63.0,-6.0,4.0,113.3503125,27.0,0.058556625,32.13
2021-06-23 15:29:39.476562500,63.0,-5.75,4.0,113.343984375,25.215,0.05839646875,32.13
2021-06-23 15:29:39.484375000,63.0,-5.5,4.0,113.33765625000001,23.43,0.0582363125,32.13
2021-06-23 15:29:39.492187500,63.0,-5.25,4.0,113.331328125,21.555,0.058076156250000004,32.13
2021-06-23 15:29:39.500000000,63.0,-5.0,4.0,113.325,19.68,0.057916,32.13
2021-06-23 15:29:39.507812500,63.0,-5.0,4.0,113.318671875,17.935000000000002,0.0581161875,32.13
2021-06-23 15:29:39.515625000,63.0,-5.0,4.0,113.31234375,16.19,0.058316375000000004,32.13
2021-06-23 15:29:39.523437500,63.0,-5.0,4.0,113.306015625,14.695,0.0585165625,32.13
2021-06-23 15:29:39.531250000,63.0,-5.0,4.0,113.2996875,13.2,0.058716750000000005,32.13
2021-06-23 15:29:39.539062500,63.0,-5.25,4.0,113.29335937500001,12.015,0.0589169375,32.13
2021-06-23 15:29:39.546875000,63.0,-5.5,4.0,113.28703125,10.83,0.059117125,32.13
2021-06-23 15:29:39.554687500,63.0,-5.75,4.0,113.280703125,9.955,0.059317312500000004,32.13
2021-06-23 15:29:39.562500000,63.0,-6.0,4.0,113.274375,9.08,0.0595175,32.13
2021-06-23 15:29:39.570312500,63.0,-6.0,4.0,113.268046875,8.46,0.059717687500000005,32.13
2021-06-23 15:29:39.578125000,63.0,-6.0,4.0,113.26171875,7.84,0.059917875,32.13
2021-06-23 15:29:39.585937500,63.0,-6.0,4.0,113.255390625,7.42,0.0601180625,32.13
2021-06-23 15:29:39.593750000,63.0,-6.0,4.0,113.24906250000001,7.0,0.060318250000000004,32.13
2021-06-23 15:29:39.601562500,63.0,-5.75,4.0,113.242734375,6.755,0.0605184375,32.13
2021-06-23 15:29:39.609375000,63.0,-5.5,4.0,113.23640625,6.51,0.060718625000000005,32.13
2021-06-23 15:29:39.617187500,63.0,-5.25,4.0,113.230078125,6.445,0.0609188125,32.13
2021-06-23 15:29:39.625000000,63.0,-5.0,4.0,113.22375,6.38,0.06111900000000001,32.13
2021-06-23 15:29:39.632812500,63.0,-5.0,4.0,113.217421875,6.529999999999999,0.061319187500000004,32.13
2021-06-23 15:29:39.640625000,63.0,-5.0,4.0,113.21109375,6.68,0.061519375,32.13
2021-06-23 15:29:39.648437500,63.0,-5.0,4.0,113.20476562500001,7.01,0.061719562500000005,32.13
2021-06-23 15:29:39.656250000,63.0,-5.0,4.0,113.1984375,7.34,0.06191975,32.13
2021-06-23 15:29:39.664062500,63.0,-5.25,4.0,113.192109375,7.75,0.0621199375,32.13
2021-06-23 15:29:39.671875000,63.0,-5.5,4.0,113.18578125,8.16,0.062320125000000004,32.13
2021-06-23 15:29:39.679687500,63.0,-5.75,4.0,113.17945312500001,8.415,0.06252031250000001,32.13
2021-06-23 15:29:39.687500000,63.0,-6.0,4.0,113.173125,8.67,0.0627205,32.13
2021-06-23 15:29:39.695312500,63.0,-6.0,4.0,113.166796875,8.5,0.0629206875,32.13
2021-06-23 15:29:39.703125000,63.0,-6.0,4.0,113.16046875,8.33,0.063120875,32.13
2021-06-23 15:29:39.710937500,63.0,-6.0,4.0,113.154140625,7.484999999999999,0.0633210625,32.13
2021-06-23 15:29:39.718750000,63.0,-6.0,4.0,113.1478125,6.64,0.06352125,32.13
2021-06-23 15:29:39.726562500,63.0,-5.75,4.0,113.141484375,5.045,0.0637214375,32.13
2021-06-23 15:29:39.734375000,63.0,-5.5,4.0,113.13515625000001,3.45,0.06392162500000001,32.13
2021-06-23 15:29:39.742187500,63.0,-5.25,4.0,113.128828125,1.2400000000000002,0.0641218125,32.13
2021-06-23 15:29:39.750000000,63.0,-5.0,4.0,113.1225,-0.97,0.064322,32.13
2021-06-23 15:29:39.757812500,63.0,-5.25,4.0,113.116171875,-3.3899999999999997,0.06416184375,32.13
2021-06-23 15:29:39.765625000,63.0,-5.5,4.0,113.10984375,-5.81,0.0640016875,32.13
2021-06-23 15:29:39.773437500,63.0,-5.75,4.0,113.103515625,-7.904999999999999,0.06384153125,32.13
2021-06-23 15:29:39.781250000,63.0,-6.0,4.0,113.0971875,-10.0,0.063681375,32.13
2021-06-23 15:29:39.789062500,63.0,-6.0,4.0,113.09085937500001,-11.235,0.06352121875,32.13
2021-06-23 15:29:39.796875000,63.0,-6.0,4.0,113.08453125,-12.47,0.06336106250000001,32.13
2021-06-23 15:29:39.804687500,63.0,-6.0,4.0,113.078203125,-12.495000000000001,0.06320090625000001,32.13
2021-06-23 15:29:39.812500000,63.0,-6.0,4.0,113.071875,-12.52,0.06304075,32.13
2021-06-23 15:29:39.820312500,63.0,-6.0,4.0,113.065546875,-11.285,0.06288059375,32.13
2021-06-23 15:29:39.828125000,63.0,-6.0,4.0,113.05921875,-10.05,0.0627204375,32.13
2021-06-23 15:29:39.835937500,63.0,-6.0,4.0,113.052890625,-7.8100000000000005,0.06256028125,32.13
2021-06-23 15:29:39.843750000,63.0,-6.0,4.0,113.04656250000001,-5.57,0.062400125,32.13
2021-06-23 15:29:39.851562500,63.0,-6.0,4.0,113.040234375,-2.81,0.06223996875,32.13
2021-06-23 15:29:39.859375000,63.0,-6.0,4.0,113.03390625,-0.05,0.062079812500000005,32.13
2021-06-23 15:29:39.867187500,63.0,-6.0,4.0,113.027578125,2.685,0.06191965625,32.13
2021-06-23 15:29:39.875000000,63.0,-6.0,4.0,113.02125000000001,5.42,0.0617595,32.13
2021-06-23 15:29:39.882812500,63.0,-6.0,4.0,113.014921875,7.655,0.06159934375,32.13
2021-06-23 15:29:39.890625000,63.0,-6.0,4.0,113.00859375,9.89,0.0614391875,32.13
2021-06-23 15:29:39.898437500,63.0,-6.0,4.0,113.002265625,11.33,0.061279031250000005,32.13
2021-06-23 15:29:39.906250000,63.0,-6.0,4.0,112.9959375,12.77,0.061118875,32.13
2021-06-23 15:29:39.914062500,63.0,-5.75,4.0,112.989609375,13.355,0.06095871875,32.13
2021-06-23 15:29:39.921875000,63.0,-5.5,4.0,112.98328125,13.94,0.0607985625,32.13
2021-06-23 15:29:39.929687500,63.0,-5.25,4.0,112.97695312500001,13.795,0.06063840625,32.13
2021-06-23 15:29:39.937500000,63.0,-5.0,4.0,112.970625,13.65,0.06047825,32.13
2021-06-23 15:29:39.945312500,63.0,-5.0,4.0,112.964296875,12.99,0.06031809375,32.13
2021-06-23 15:29:39.953125000,63.0,-5.0,4.0,112.95796875,12.33,0.0601579375,32.13
2021-06-23 15:29:39.960937500,63.0,-5.0,4.0,112.951640625,11.4,0.05999778125,32.13
2021-06-23 15:29:39.968750000,63.0,-5.0,4.0,112.9453125,10.47,0.059837625,32.13
2021-06-23 15:29:39.976562500,63.0,-5.0,4.0,112.938984375,9.440000000000001,0.059677468750000004,32.13
2021-06-23 15:29:39.984375000,63.0,-5.0,4.0,112.93265625000001,8.41,0.0595173125,32.13
2021-06-23 15:29:39.992187500,63.0,-5.0,4.0,112.926328125,7.395,0.05935715625,32.13
2021-06-23 15:29:40.000000000,63.0,-5.0,4.0,112.92,6.38,0.059197,32.13
2021-06-23 15:29:40.007812500,63.0,-5.25,4.0,112.913828125,5.455,0.0592370625,32.130625
2021-06-23 15:29:40.015625000,63.0,-5.5,4.0,112.90765625,4.53,0.059277125,32.13125
2021-06-23 15:29:40.023437500,63.0,-5.75,4.0,112.901484375,3.74,0.0593171875,32.131875
2021-06-23 15:29:40.031250000,63.0,-6.0,4.0,112.8953125,2.95,0.05935725,32.1325
2021-06-23 15:29:40.039062500,63.0,-6.0,4.0,112.889140625,2.345,0.0593973125,32.133125
2021-06-23 15:29:40.046875000,63.0,-6.0,4.0,112.88296875,1.74,0.059437375,32.13375
2021-06-23 15:29:40.054687500,63.0,-6.0,4.0,112.876796875,1.355,0.0594774375,32.134375
2021-06-23 15:29:40.062500000,63.0,-6.0,4.0,112.870625,0.97,0.0595175,32.135000000000005
2021-06-23 15:29:40.070312500,63.0,-6.0,4.0,112.864453125,0.7849999999999999,0.0595575625,32.135625000000005
2021-06-23 15:29:40.078125000,63.0,-6.0,4.0,112.85828125,0.6,0.059597625,32.136250000000004
2021-06-23 15:29:40.085937500,63.0,-6.0,4.0,112.852109375,0.54,0.0596376875,32.136875
2021-06-23 15:29:40.093750000,63.0,-6.0,4.0,112.8459375,0.48,0.05967775,32.1375
2021-06-23 15:29:40.101562500,63.0,-6.0,4.0,112.839765625,0.435,0.0597178125,32.138125
2021-06-23 15:29:40.109375000,63.0,-6.0,4.0,112.83359375,0.39,0.059757875,32.13875
2021-06-23 15:29:40.117187500,63.0,-6.0,4.0,112.827421875,0.24,0.0597979375,32.139375
2021-06-23 15:29:40.125000000,63.0,-6.0,4.0,112.82125,0.09,0.059838,32.14
2021-06-23 15:29:40.132812500,63.0,-6.0,4.0,112.815078125,-0.23,0.059878062499999996,32.140625
2021-06-23 15:29:40.140625000,63.0,-6.0,4.0,112.80890625,-0.55,0.059918124999999996,32.14125
2021-06-23 15:29:40.148437500,63.0,-6.0,4.0,112.802734375,-1.07,0.059958187499999996,32.141875
2021-06-23 15:29:40.156250000,63.0,-6.0,4.0,112.79656250000001,-1.59,0.059998249999999996,32.1425
2021-06-23 15:29:40.164062500,63.0,-5.75,4.0,112.790390625,-2.315,0.060038312499999996,32.143125
2021-06-23 15:29:40.171875000,63.0,-5.5,4.0,112.78421875,-3.04,0.060078374999999996,32.14375
2021-06-23 15:29:40.179687500,63.0,-5.25,4.0,112.778046875,-4.01,0.0601184375,32.144375
2021-06-23 15:29:40.187500000,63.0,-5.0,4.0,112.771875,-4.98,0.0601585,32.144999999999996
2021-06-23 15:29:40.195312500,63.0,-5.25,4.0,112.765703125,-6.255000000000001,0.0601985625,32.145625
2021-06-23 15:29:40.203125000,63.0,-5.5,4.0,112.75953125,-7.53,0.060238625,32.14625
2021-06-23 15:29:40.210937500,63.0,-5.75,4.0,112.753359375,-9.165000000000001,0.0602786875,32.146875
2021-06-23 15:29:40.218750000,63.0,-6.0,4.0,112.7471875,-10.8,0.06031875,32.1475
2021-06-23 15:29:40.226562500,63.0,-5.75,4.0,112.741015625,-12.72,0.0603588125,32.148125
2021-06-23 15:29:40.234375000,63.0,-5.5,4.0,112.73484375,-14.64,0.060398875,32.14875
2021-06-23 15:29:40.242187500,63.0,-5.25,4.0,112.728671875,-16.57,0.0604389375,32.149375
2021-06-23 15:29:40.250000000,63.0,-5.0,4.0,112.7225,-18.5,0.060479,32.15
2021-06-23 15:29:40.257812500,63.0,-5.0,4.0,112.716328125,-19.95,0.060398906249999995,32.15
2021-06-23 15:29:40.265625000,63.0,-5.0,4.0,112.71015625,-21.4,0.0603188125,32.15
2021-06-23 15:29:40.273437500,63.0,-5.0,4.0,112.703984375,-21.84,0.060238718749999996,32.15
2021-06-23 15:29:40.281250000,63.0,-5.0,4.0,112.6978125,-22.28,0.060158625,32.15
2021-06-23 15:29:40.289062500,63.0,-5.25,4.25,112.691640625,-21.325000000000003,0.06007853125,32.15
2021-06-23 15:29:40.296875000,63.0,-5.5,4.5,112.68546875,-20.37,0.0599984375,32.15
2021-06-23 15:29:40.304687500,63.0,-5.75,4.75,112.679296875,-17.985,0.05991834375,32.15
2021-06-23 15:29:40.312500000,63.0,-6.0,5.0,112.673125,-15.6,0.059838249999999996,32.15
2021-06-23 15:29:40.320312500,63.0,-6.0,5.0,112.666953125,-12.165,0.05975815625,32.15
2021-06-23 15:29:40.328125000,63.0,-6.0,5.0,112.66078125,-8.73,0.0596780625,32.15
2021-06-23 15:29:40.335937500,63.0,-6.0,5.0,112.65460937499999,-4.915,0.05959796875,32.15
2021-06-23 15:29:40.343750000,63.0,-6.0,5.0,112.6484375,-1.1,0.059517875,32.15
2021-06-23 15:29:40.351562500,63.0,-6.0,5.0,112.642265625,2.3699999999999997,0.05943778125,32.15
2021-06-23 15:29:40.359375000,63.0,-6.0,5.0,112.63609375,5.84,0.0593576875,32.15
2021-06-23 15:29:40.367187500,63.0,-6.0,5.0,112.629921875,8.415,0.05927759375,32.15
2021-06-23 15:29:40.375000000,63.0,-6.0,5.0,112.62375,10.99,0.0591975,32.15
2021-06-23 15:29:40.382812500,63.0,-6.0,4.75,112.617578125,12.445,0.05911740625,32.15
2021-06-23 15:29:40.390625000,63.0,-6.0,4.5,112.61140625,13.9,0.0590373125,32.15
2021-06-23 15:29:40.398437500,63.0,-6.0,4.25,112.605234375,14.285,0.05895721875,32.15
2021-06-23 15:29:40.406250000,63.0,-6.0,4.0,112.5990625,14.67,0.058877125,32.15
2021-06-23 15:29:40.414062500,63.0,-6.0,4.25,112.592890625,14.219999999999999,0.05879703125,32.15
2021-06-23 15:29:40.421875000,63.0,-6.0,4.5,112.58671875,13.77,0.058716937500000004,32.15
2021-06-23 15:29:40.429687500,63.0,-6.0,4.75,112.580546875,12.754999999999999,0.05863684375,32.15
2021-06-23 15:29:40.437500000,63.0,-6.0,5.0,112.574375,11.74,0.058556750000000005,32.15
2021-06-23 15:29:40.445312500,63.0,-5.75,5.0,112.568203125,10.425,0.05847665625,32.15
2021-06-23 15:29:40.453125000,63.0,-5.5,5.0,112.56203125,9.11,0.0583965625,32.15
2021-06-23 15:29:40.460937500,63.0,-5.25,5.0,112.555859375,7.744999999999999,0.05831646875,32.15
2021-06-23 15:29:40.468750000,63.0,-5.0,5.0,112.5496875,6.38,0.058236375,32.15
2021-06-23 15:29:40.476562500,63.0,-5.25,4.75,112.543515625,5.225,0.058156281250000004,32.15
2021-06-23 15:29:40.484375000,63.0,-5.5,4.5,112.53734375,4.07,0.0580761875,32.15
2021-06-23 15:29:40.492187500,63.0,-5.75,4.25,112.531171875,3.33,0.057996093750000005,32.15
2021-06-23 15:29:40.500000000,63.0,-6.0,4.0,112.525,2.59,0.057916,32.15
2021-06-23 15:29:40.507812500,63.0,-6.0,4.25,112.518828125,2.3899999999999997,0.058076156250000004,32.15
2021-06-23 15:29:40.515625000,63.0,-6.0,4.5,112.51265624999999,2.19,0.058236312500000005,32.15
2021-06-23 15:29:40.523437500,63.0,-6.0,4.75,112.506484375,2.48,0.05839646875,32.15
2021-06-23 15:29:40.531250000,63.0,-6.0,5.0,112.50031249999999,2.77,0.058556625,32.15
2021-06-23 15:29:40.539062500,63.0,-6.0,5.0,112.494140625,3.365,0.05871678125,32.15
2021-06-23 15:29:40.546875000,63.0,-6.0,5.0,112.48796875,3.96,0.058876937500000004,32.15
2021-06-23 15:29:40.554687500,63.0,-6.0,5.0,112.481796875,4.59,0.05903709375,32.15
2021-06-23 15:29:40.562500000,63.0,-6.0,5.0,112.475625,5.22,0.05919725,32.15
2021-06-23 15:29:40.570312500,63.0,-6.0,5.0,112.469453125,5.6899999999999995,0.05935740625,32.15
2021-06-23 15:29:40.578125000,63.0,-6.0,5.0,112.46328125,6.16,0.0595175625,32.15
2021-06-23 15:29:40.585937500,63.0,-6.0,5.0,112.457109375,6.375,0.059677718750000004,32.15
2021-06-23 15:29:40.593750000,63.0,-6.0,5.0,112.4509375,6.59,0.059837875,32.15
2021-06-23 15:29:40.601562500,63.0,-6.0,5.0,112.444765625,6.58,0.05999803125,32.15
2021-06-23 15:29:40.609375000,63.0,-6.0,5.0,112.43859375,6.57,0.0601581875,32.15
2021-06-23 15:29:40.617187500,63.0,-6.0,5.0,112.432421875,6.4,0.06031834375,32.15
2021-06-23 15:29:40.625000000,63.0,-6.0,5.0,112.42625,6.23,0.060478500000000004,32.15
2021-06-23 15:29:40.632812500,63.0,-6.0,5.0,112.420078125,5.9,0.06063865625,32.15
2021-06-23 15:29:40.640625000,63.0,-6.0,5.0,112.41390625,5.57,0.0607988125,32.15
2021-06-23 15:29:40.648437500,63.0,-6.0,5.0,112.407734375,4.965,0.06095896875,32.15
2021-06-23 15:29:40.656250000,63.0,-6.0,5.0,112.4015625,4.36,0.061119125,32.15
2021-06-23 15:29:40.664062500,63.0,-6.0,5.0,112.395390625,3.265,0.06127928125,32.15
2021-06-23 15:29:40.671875000,63.0,-6.0,5.0,112.38921875,2.17,0.0614394375,32.15
2021-06-23 15:29:40.679687500,63.0,-6.0,5.0,112.38304687499999,0.3799999999999999,0.06159959375,32.15
2021-06-23 15:29:40.687500000,63.0,-6.0,5.0,112.376875,-1.41,0.06175975,32.15
2021-06-23 15:29:40.695312500,63.0,-6.0,5.0,112.37070312499999,-3.9349999999999996,0.061919906250000004,32.15
2021-06-23 15:29:40.703125000,63.0,-6.0,5.0,112.36453125,-6.46,0.0620800625,32.15
2021-06-23 15:29:40.710937500,63.0,-6.0,5.0,112.35835937499999,-9.55,0.06224021875,32.15
2021-06-23 15:29:40.718750000,63.0,-6.0,5.0,112.3521875,-12.64,0.062400375,32.15
2021-06-23 15:29:40.726562500,63.0,-6.0,5.0,112.34601562499999,-15.855,0.06256053125,32.15
2021-06-23 15:29:40.734375000,63.0,-6.0,5.0,112.33984375,-19.07,0.0627206875,32.15
2021-06-23 15:29:40.742187500,63.0,-6.0,5.0,112.333671875,-21.8,0.06288084375,32.15
2021-06-23 15:29:40.750000000,63.0,-6.0,5.0,112.3275,-24.53,0.063041,32.15
2021-06-23 15:29:40.757812500,63.0,-6.0,4.75,112.321328125,-26.165,0.06308103125,32.15
2021-06-23 15:29:40.765625000,63.0,-6.0,4.5,112.31515625,-27.8,0.0631210625,32.15
2021-06-23 15:29:40.773437500,63.0,-6.0,4.25,112.308984375,-27.925,0.06316109375,32.15
2021-06-23 15:29:40.781250000,63.0,-6.0,4.0,112.3028125,-28.05,0.063201125,32.15
2021-06-23 15:29:40.789062500,63.0,-6.0,4.25,112.296640625,-26.595,0.06324115625,32.15
2021-06-23 15:29:40.796875000,63.0,-6.0,4.5,112.29046875,-25.14,0.0632811875,32.15
2021-06-23 15:29:40.804687500,63.0,-6.0,4.75,112.284296875,-22.395,0.06332121875,32.15
2021-06-23 15:29:40.812500000,63.0,-6.0,5.0,112.278125,-19.65,0.06336125000000001,32.15
2021-06-23 15:29:40.820312500,63.0,-5.75,5.0,112.271953125,-16.15,0.06340128125,32.15
2021-06-23 15:29:40.828125000,63.0,-5.5,5.0,112.26578125,-12.65,0.0634413125,32.15
2021-06-23 15:29:40.835937500,63.0,-5.25,5.0,112.259609375,-9.01,0.06348134375,32.15
2021-06-23 15:29:40.843750000,63.0,-5.0,5.0,112.25343749999999,-5.37,0.063521375,32.15
2021-06-23 15:29:40.851562500,63.0,-5.25,5.0,112.247265625,-2.1100000000000003,0.06356140625000001,32.15
2021-06-23 15:29:40.859375000,63.0,-5.5,5.0,112.24109374999999,1.15,0.0636014375,32.15
2021-06-23 15:29:40.867187500,63.0,-5.75,5.0,112.234921875,3.7099999999999995,0.06364146875,32.15
2021-06-23 15:29:40.875000000,63.0,-6.0,5.0,112.22874999999999,6.27,0.0636815,32.15
2021-06-23 15:29:40.882812500,63.0,-6.0,4.75,112.222578125,8.035,0.06372153125,32.15
2021-06-23 15:29:40.890625000,63.0,-6.0,4.5,112.21640624999999,9.8,0.06376156250000001,32.15
2021-06-23 15:29:40.898437500,63.0,-6.0,4.25,112.210234375,10.825,0.06380159375,32.15
2021-06-23 15:29:40.906250000,63.0,-6.0,4.0,112.20406249999999,11.85,0.063841625,32.15
2021-06-23 15:29:40.914062500,63.0,-5.75,4.25,112.197890625,12.285,0.06388165625,32.15
2021-06-23 15:29:40.921875000,63.0,-5.5,4.5,112.19171874999999,12.72,0.0639216875,32.15
2021-06-23 15:29:40.929687500,63.0,-5.25,4.75,112.185546875,12.73,0.06396171875000001,32.15
2021-06-23 15:29:40.937500000,63.0,-5.0,5.0,112.179375,12.74,0.06400175,32.15
2021-06-23 15:29:40.945312500,63.0,-5.0,5.0,112.173203125,12.445,0.06404178125,32.15
2021-06-23 15:29:40.953125000,63.0,-5.0,5.0,112.16703125,12.15,0.0640818125,32.15
2021-06-23 15:29:40.960937500,63.0,-5.0,5.0,112.160859375,11.64,0.06412184375,32.15
2021-06-23 15:29:40.968750000,63.0,-5.0,5.0,112.1546875,11.13,0.06416187500000001,32.15
2021-06-23 15:29:40.976562500,63.0,-5.25,4.75,112.148515625,10.48,0.06420190625000001,32.15
2021-06-23 15:29:40.984375000,63.0,-5.5,4.5,112.14234375,9.83,0.0642419375,32.15
2021-06-23 15:29:40.992187500,63.0,-5.75,4.25,112.136171875,9.15,0.06428196875,32.15
2021-06-23 15:29:41.000000000,63.0,-6.0,4.0,112.13,8.47,0.064322,32.15
2021-06-23 15:29:41.007812500,63.0,-5.75,4.0,112.12375,7.885,0.0641218125,32.15
2021-06-23 15:29:41.015625000,63.0,-5.5,4.0,112.11749999999999,7.3,0.06392162500000001,32.15
2021-06-23 15:29:41.023437500,63.0,-5.25,4.0,112.11125,6.91,0.0637214375,32.15
2021-06-23 15:29:41.031250000,63.0,-5.0,4.0,112.10499999999999,6.52,0.06352125,32.15
2021-06-23 15:29:41.039062500,63.0,-5.25,4.25,112.09875,6.34,0.0633210625,32.15
2021-06-23 15:29:41.046875000,63.0,-5.5,4.5,112.0925,6.16,0.063120875,32.15
2021-06-23 15:29:41.054687500,63.0,-5.75,4.75,112.08624999999999,6.04,0.0629206875,32.15
2021-06-23 15:29:41.062500000,63.0,-6.0,5.0,112.08,5.92,0.0627205,32.15
2021-06-23 15:29:41.070312500,63.0,-6.0,5.0,112.07374999999999,5.65,0.06252031250000001,32.15
2021-06-23 15:29:41.078125000,63.0,-6.0,5.0,112.0675,5.38,0.062320125000000004,32.15
2021-06-23 15:29:41.085937500,63.0,-6.0,5.0,112.06125,4.745,0.0621199375,32.15
2021-06-23 15:29:41.093750000,63.0,-6.0,5.0,112.05499999999999,4.11,0.06191975,32.15
2021-06-23 15:29:41.101562500,63.0,-6.0,5.0,112.04875,3.005,0.061719562500000005,32.15
2021-06-23 15:29:41.109375000,63.0,-6.0,5.0,112.04249999999999,1.9,0.061519375,32.15
2021-06-23 15:29:41.117187500,63.0,-6.0,5.0,112.03625,0.3599999999999999,0.061319187500000004,32.15
2021-06-23 15:29:41.125000000,63.0,-6.0,5.0,112.03,-1.18,0.06111900000000001,32.15
2021-06-23 15:29:41.132812500,63.0,-6.0,4.75,112.02374999999999,-3.04,0.0609188125,32.15
2021-06-23 15:29:41.140625000,63.0,-6.0,4.5,112.0175,-4.9,0.060718625000000005,32.15
2021-06-23 15:29:41.148437500,63.0,-6.0,4.25,112.01124999999999,-6.98,0.0605184375,32.15
2021-06-23 15:29:41.156250000,63.0,-6.0,4.0,112.005,-9.06,0.060318250000000004,32.15
2021-06-23 15:29:41.164062500,63.0,-6.0,4.25,111.99875,-11.325,0.0601180625,32.15
2021-06-23 15:29:41.171875000,63.0,-6.0,4.5,111.99249999999999,-13.59,0.059917875,32.15
2021-06-23 15:29:41.179687500,63.0,-6.0,4.75,111.98625,-15.98,0.059717687500000005,32.15
2021-06-23 15:29:41.187500000,63.0,-6.0,5.0,111.97999999999999,-18.37,0.0595175,32.15
2021-06-23 15:29:41.195312500,63.0,-6.0,5.0,111.97375,-20.71,0.059317312500000004,32.15
2021-06-23 15:29:41.203125000,63.0,-6.0,5.0,111.9675,-23.05,0.059117125000000006,32.15
2021-06-23 15:29:41.210937500,63.0,-6.0,5.0,111.96124999999999,-24.990000000000002,0.0589169375,32.15
2021-06-23 15:29:41.218750000,63.0,-6.0,5.0,111.955,-26.93,0.058716750000000005,32.15
2021-06-23 15:29:41.226562500,63.0,-5.75,5.0,111.94874999999999,-28.04,0.0585165625,32.15
2021-06-23 15:29:41.234375000,63.0,-5.5,5.0,111.9425,-29.15,0.058316375000000004,32.15
2021-06-23 15:29:41.242187500,63.0,-5.25,5.0,111.93625,-29.08,0.0581161875,32.15
2021-06-23 15:29:41.250000000,63.0,-5.0,5.0,111.92999999999999,-29.01,0.057916,32.15
2021-06-23 15:29:41.257812500,63.0,-5.0,4.75,111.92375,-27.740000000000002,0.058076156250000004,32.15
2021-06-23 15:29:41.265625000,63.0,-5.0,4.5,111.91749999999999,-26.47,0.058236312500000005,32.15
2021-06-23 15:29:41.273437500,63.0,-5.0,4.25,111.91125,-24.325,0.05839646875,32.15
2021-06-23 15:29:41.281250000,63.0,-5.0,4.0,111.905,-22.18,0.058556625,32.15
2021-06-23 15:29:41.289062500,63.0,-5.25,4.0,111.89874999999999,-19.715,0.05871678125,32.15
2021-06-23 15:29:41.296875000,63.0,-5.5,4.0,111.8925,-17.25,0.058876937500000004,32.15
2021-06-23 15:29:41.304687500,63.0,-5.75,4.0,111.88624999999999,-15.05,0.05903709375,32.15
2021-06-23 15:29:41.312500000,63.0,-6.0,4.0,111.88,-12.85,0.05919725,32.15
2021-06-23 15:29:41.320312500,63.0,-5.75,4.25,111.87375,-11.280000000000001,0.05935740625,32.15
2021-06-23 15:29:41.328125000,63.0,-5.5,4.5,111.86749999999999,-9.71,0.0595175625,32.15
2021-06-23 15:29:41.335937500,63.0,-5.25,4.75,111.86125,-8.835,0.059677718750000004,32.15
2021-06-23 15:29:41.343750000,63.0,-5.0,5.0,111.85499999999999,-7.96,0.059837875,32.15
2021-06-23 15:29:41.351562500,63.0,-5.0,5.0,111.84875,-7.625,0.05999803125,32.15
2021-06-23 15:29:41.359375000,63.0,-5.0,5.0,111.8425,-7.29,0.0601581875,32.15
2021-06-23 15:29:41.367187500,63.0,-5.0,5.0,111.83624999999999,-7.234999999999999,0.06031834375,32.15
2021-06-23 15:29:41.375000000,63.0,-5.0,5.0,111.83,-7.18,0.060478500000000004,32.15
2021-06-23 15:29:41.382812500,63.0,-5.25,5.0,111.82374999999999,-7.18,0.06063865625,32.15
2021-06-23 15:29:41.390625000,63.0,-5.5,5.0,111.8175,-7.18,0.0607988125,32.15
2021-06-23 15:29:41.398437500,63.0,-5.75,5.0,111.81125,-7.1,0.06095896875,32.15
2021-06-23 15:29:41.406250000,63.0,-6.0,5.0,111.80499999999999,-7.02,0.061119125,32.15
2021-06-23 15:29:41.414062500,63.0,-6.0,5.0,111.79875,-6.779999999999999,0.06127928125,32.15
2021-06-23 15:29:41.421875000,63.0,-6.0,5.0,111.79249999999999,-6.54,0.0614394375,32.15
2021-06-23 15:29:41.429687500,63.0,-6.0,5.0,111.78625,-6.095000000000001,0.06159959375,32.15
2021-06-23 15:29:41.437500000,63.0,-6.0,5.0,111.78,-5.65,0.06175975,32.15
2021-06-23 15:29:41.445312500,63.0,-5.75,4.75,111.77374999999999,-4.955,0.061919906250000004,32.15
2021-06-23 15:29:41.453125000,63.0,-5.5,4.5,111.7675,-4.26,0.0620800625,32.15
2021-06-23 15:29:41.460937500,63.0,-5.25,4.25,111.76124999999999,-3.3,0.06224021875,32.15
2021-06-23 15:29:41.468750000,63.0,-5.0,4.0,111.755,-2.34,0.062400375,32.15
2021-06-23 15:29:41.476562500,63.0,-5.25,4.25,111.74875,-1.15,0.06256053125,32.15
2021-06-23 15:29:41.484375000,63.0,-5.5,4.5,111.74249999999999,0.04,0.0627206875,32.15
2021-06-23 15:29:41.492187500,63.0,-5.75,4.75,111.73625,1.375,0.06288084375,32.15
2021-06-23 15:29:41.500000000,63.0,-6.0,5.0,111.72999999999999,2.71,0.063041,32.15
2021-06-23 15:29:41.507812500,63.0,-6.0,5.0,111.72375,4.029999999999999,0.062920875,32.15
2021-06-23 15:29:41.515625000,63.0,-6.0,5.0,111.7175,5.35,0.06280075,32.15
2021-06-23 15:29:41.523437500,63.0,-6.0,5.0,111.71124999999999,6.494999999999999,0.062680625,32.15
2021-06-23 15:29:41.531250000,63.0,-6.0,5.0,111.705,7.64,0.0625605,32.15
2021-06-23 15:29:41.539062500,63.0,-6.0,5.0,111.69875,8.459999999999999,0.062440375,32.15
2021-06-23 15:29:41.546875000,63.0,-6.0,5.0,111.6925,9.28,0.06232025,32.15
2021-06-23 15:29:41.554687500,63.0,-6.0,5.0,111.68625,9.69,0.062200125,32.15
2021-06-23 15:29:41.562500000,63.0,-6.0,5.0,111.67999999999999,10.1,0.062079999999999996,32.15
2021-06-23 15:29:41.570312500,63.0,-5.75,5.0,111.67375,10.105,0.061959875,32.15
2021-06-23 15:29:41.578125000,63.0,-5.5,5.0,111.6675,10.11,0.06183975,32.15
2021-06-23 15:29:41.585937500,63.0,-5.25,5.0,111.66125,9.765,0.061719625,32.15
2021-06-23 15:29:41.593750000,63.0,-5.0,5.0,111.655,9.42,0.0615995,32.15
2021-06-23 15:29:41.601562500,63.0,-5.25,5.0,111.64874999999999,8.780000000000001,0.061479375,32.15
2021-06-23 15:29:41.609375000,63.0,-5.5,5.0,111.6425,8.14,0.06135925,32.15
2021-06-23 15:29:41.617187500,63.0,-5.75,5.0,111.63625,7.215,0.061239125,32.15
2021-06-23 15:29:41.625000000,63.0,-6.0,5.0,111.63,6.29,0.061119,32.15
2021-06-23 15:29:41.632812500,63.0,-6.0,4.75,111.62375,5.005,0.060998875,32.15
2021-06-23 15:29:41.640625000,63.0,-6.0,4.5,111.61749999999999,3.72,0.06087875,32.15
2021-06-23 15:29:41.648437500,63.0,-6.0,4.25,111.61125,1.985,0.060758625,32.15
2021-06-23 15:29:41.656250000,63.0,-6.0,4.0,111.605,0.25,0.0606385,32.15
2021-06-23 15:29:41.664062500,63.0,-5.75,4.25,111.59875,-1.955,0.060518375,32.15
2021-06-23 15:29:41.671875000,63.0,-5.5,4.5,111.5925,-4.16,0.06039825,32.15
2021-06-23 15:29:41.679687500,63.0,-5.25,4.75,111.58624999999999,-6.68,0.060278125,32.15
2021-06-23 15:29:41.687500000,63.0,-5.0,5.0,111.58,-9.2,0.060158,32.15
2021-06-23 15:29:41.695312500,63.0,-5.25,5.0,111.57375,-11.68,0.060037875,32.15
2021-06-23 15:29:41.703125000,63.0,-5.5,5.0,111.5675,-14.16,0.05991775,32.15
2021-06-23 15:29:41.710937500,63.0,-5.75,5.0,111.56125,-16.055,0.059797625,32.15
2021-06-23 15:29:41.718750000,63.0,-6.0,5.0,111.55499999999999,-17.95,0.0596775,32.15
2021-06-23 15:29:41.726562500,63.0,-6.0,5.0,111.54875,-18.75,0.059557375,32.15
2021-06-23 15:29:41.734375000,63.0,-6.0,5.0,111.5425,-19.55,0.05943725,32.15
2021-06-23 15:29:41.742187500,63.0,-6.0,5.0,111.53625,-18.905,0.059317125,32.15
2021-06-23 15:29:41.750000000,63.0,-6.0,5.0,111.53,-18.26,0.059197,32.15
2021-06-23 15:29:41.757812500,63.0,-6.0,4.75,111.52374999999999,-16.145,0.05927709375,32.15
2021-06-23 15:29:41.765625000,63.0,-6.0,4.5,111.5175,-14.03,0.0593571875,32.15
2021-06-23 15:29:41.773437500,63.0,-6.0,4.25,111.51125,-10.78,0.05943728125,32.15
2021-06-23 15:29:41.781250000,63.0,-6.0,4.0,111.505,-7.53,0.059517375,32.15
2021-06-23 15:29:41.789062500,63.0,-6.0,4.25,111.49875,-3.72,0.05959746875,32.15
2021-06-23 15:29:41.796875000,63.0,-6.0,4.5,111.49249999999999,0.09,0.0596775625,32.15
2021-06-23 15:29:41.804687500,63.0,-6.0,4.75,111.48625,3.83,0.05975765625,32.15
2021-06-23 15:29:41.812500000,63.0,-6.0,5.0,111.48,7.57,0.05983775,32.15
2021-06-23 15:29:41.820312500,63.0,-6.0,4.75,111.47375,10.745000000000001,0.05991784375,32.15
2021-06-23 15:29:41.828125000,63.0,-6.0,4.5,111.4675,13.92,0.0599979375,32.15
2021-06-23 15:29:41.835937500,63.0,-6.0,4.25,111.46124999999999,16.285,0.060078031250000004,32.15
2021-06-23 15:29:41.843750000,63.0,-6.0,4.0,111.455,18.65,0.060158125,32.15
2021-06-23 15:29:41.851562500,63.0,-6.0,4.0,111.44875,20.235,0.06023821875,32.15
2021-06-23 15:29:41.859375000,63.0,-6.0,4.0,111.4425,21.82,0.0603183125,32.15
2021-06-23 15:29:41.867187500,63.0,-6.0,4.0,111.43625,22.79,0.06039840625,32.15
2021-06-23 15:29:41.875000000,63.0,-6.0,4.0,111.42999999999999,23.76,0.060478500000000004,32.15
2021-06-23 15:29:41.882812500,63.0,-6.0,4.0,111.42375,24.305,0.06055859375,32.15
2021-06-23 15:29:41.890625000,63.0,-6.0,4.0,111.4175,24.85,0.0606386875,32.15
2021-06-23 15:29:41.898437500,63.0,-6.0,4.0,111.41125,25.060000000000002,0.06071878125,32.15
2021-06-23 15:29:41.906250000,63.0,-6.0,4.0,111.405,25.27,0.060798875,32.15
2021-06-23 15:29:41.914062500,63.0,-6.0,4.0,111.39874999999999,25.15,0.06087896875,32.15
2021-06-23 15:29:41.921875000,63.0,-6.0,4.0,111.3925,25.03,0.0609590625,32.15
2021-06-23 15:29:41.929687500,63.0,-6.0,4.0,111.38625,24.54,0.061039156250000004,32.15
2021-06-23 15:29:41.937500000,63.0,-6.0,4.0,111.38,24.05,0.06111925,32.15
2021-06-23 15:29:41.945312500,63.0,-5.75,4.0,111.37375,23.195,0.06119934375,32.15
2021-06-23 15:29:41.953125000,63.0,-5.5,4.0,111.36749999999999,22.34,0.0612794375,32.15
2021-06-23 15:29:41.960937500,63.0,-5.25,4.0,111.36125,21.189999999999998,0.06135953125,32.15
2021-06-23 15:29:41.968750000,63.0,-5.0,4.0,111.355,20.04,0.061439625000000005,32.15
2021-06-23 15:29:41.976562500,63.0,-5.25,4.25,111.34875,18.735,0.06151971875,32.15
2021-06-23 15:29:41.984375000,63.0,-5.5,4.5,111.3425,17.43,0.061599812500000004,32.15
2021-06-23 15:29:41.992187500,63.0,-5.75,4.75,111.33624999999999,16.13,0.06167990625,32.15
2021-06-23 15:29:42.000000000,63.0,-6.0,5.0,111.33,14.83,0.06176,32.15
2021-06-23 15:29:42.007812500,63.0,-6.0,4.75,111.32390625,13.67,0.0618400625,32.1503125
2021-06-23 15:29:42.015625000,63.0,-6.0,4.5,111.3178125,12.51,0.061920125,32.150625
2021-06-23 15:29:42.023437500,63.0,-6.0,4.25,111.31171875,11.565,0.062000187500000005,32.1509375
2021-06-23 15:29:42.031250000,63.0,-6.0,4.0,111.30562499999999,10.62,0.062080250000000003,32.15125
2021-06-23 15:29:42.039062500,63.0,-5.75,4.0,111.29953125,9.92,0.0621603125,32.1515625
2021-06-23 15:29:42.046875000,63.0,-5.5,4.0,111.2934375,9.22,0.062240375,32.151875
2021-06-23 15:29:42.054687500,63.0,-5.25,4.0,111.28734375,8.725000000000001,0.062320437500000006,32.1521875
2021-06-23 15:29:42.062500000,63.0,-5.0,4.0,111.28125,8.23,0.062400500000000005,32.152499999999996
2021-06-23 15:29:42.070312500,63.0,-5.0,4.25,111.27515625,7.845000000000001,0.0624805625,32.152812499999996
2021-06-23 15:29:42.078125000,63.0,-5.0,4.5,111.2690625,7.46,0.06256062500000001,32.153124999999996
2021-06-23 15:29:42.085937500,63.0,-5.0,4.75,111.26296875,7.01,0.0626406875,32.153437499999995
2021-06-23 15:29:42.093750000,63.0,-5.0,5.0,111.256875,6.56,0.06272075,32.153749999999995
2021-06-23 15:29:42.101562500,63.0,-5.0,4.75,111.25078125,5.82,0.0628008125,32.154062499999995
2021-06-23 15:29:42.109375000,63.0,-5.0,4.5,111.2446875,5.08,0.062880875,32.154374999999995
2021-06-23 15:29:42.117187500,63.0,-5.0,4.25,111.23859374999999,3.81,0.06296093750000001,32.154687499999994
2021-06-23 15:29:42.125000000,63.0,-5.0,4.0,111.2325,2.54,0.063041,32.155
2021-06-23 15:29:42.132812500,63.0,-5.0,4.0,111.22640625,0.5800000000000001,0.0631210625,32.1553125
2021-06-23 15:29:42.140625000,63.0,-5.0,4.0,111.22031249999999,-1.38,0.063201125,32.155625
2021-06-23 15:29:42.148437500,63.0,-5.0,4.0,111.21421875,-4.02,0.0632811875,32.1559375
2021-06-23 15:29:42.156250000,63.0,-5.0,4.0,111.208125,-6.66,0.06336125000000001,32.15625
2021-06-23 15:29:42.164062500,63.0,-5.0,4.0,111.20203125,-9.745000000000001,0.0634413125,32.1565625
2021-06-23 15:29:42.171875000,63.0,-5.0,4.0,111.1959375,-12.83,0.063521375,32.156875
2021-06-23 15:29:42.179687500,63.0,-5.0,4.0,111.18984375,-15.93,0.06360143750000001,32.1571875
2021-06-23 15:29:42.187500000,63.0,-5.0,4.0,111.18375,-19.03,0.0636815,32.1575
2021-06-23 15:29:42.195312500,63.0,-5.0,4.0,111.17765625,-21.565,0.06376156250000001,32.1578125
2021-06-23 15:29:42.203125000,63.0,-5.0,4.0,111.1715625,-24.1,0.063841625,32.158125
2021-06-23 15:29:42.210937500,63.0,-5.0,4.0,111.16546875,-25.505000000000003,0.0639216875,32.1584375
2021-06-23 15:29:42.218750000,63.0,-5.0,4.0,111.159375,-26.91,0.06400175000000001,32.15875
2021-06-23 15:29:42.226562500,63.0,-5.0,4.0,111.15328124999999,-26.810000000000002,0.0640818125,32.1590625
2021-06-23 15:29:42.234375000,63.0,-5.0,4.0,111.1471875,-26.71,0.06416187500000001,32.159375
2021-06-23 15:29:42.242187500,63.0,-5.0,4.0,111.14109375,-25.02,0.0642419375,32.1596875
2021-06-23 15:29:42.250000000,63.0,-5.0,4.0,111.13499999999999,-23.33,0.064322,32.16
2021-06-23 15:29:42.257812500,63.0,-5.0,4.0,111.12890625,-20.305,0.06420190625000001,32.16
2021-06-23 15:29:42.265625000,63.0,-5.0,4.0,111.1228125,-17.28,0.0640818125,32.16
2021-06-23 15:29:42.273437500,63.0,-5.0,4.0,111.11671875,-13.495000000000001,0.06396171875000001,32.16
2021-06-23 15:29:42.281250000,63.0,-5.0,4.0,111.110625,-9.71,0.063841625,32.16
2021-06-23 15:29:42.289062500,63.0,-5.25,4.0,111.10453125,-5.845000000000001,0.06372153125,32.16
2021-06-23 15:29:42.296875000,63.0,-5.5,4.0,111.0984375,-1.98,0.0636014375,32.16
2021-06-23 15:29:42.304687500,63.0,-5.75,4.0,111.09234375,1.3400000000000003,0.06348134375,32.16
2021-06-23 15:29:42.312500000,63.0,-6.0,4.0,111.08624999999999,4.66,0.06336125000000001,32.16
2021-06-23 15:29:42.320312500,63.0,-6.0,4.0,111.08015625,7.05,0.06324115625,32.16
2021-06-23 15:29:42.328125000,63.0,-6.0,4.0,111.0740625,9.44,0.0631210625,32.16
2021-06-23 15:29:42.335937500,63.0,-6.0,4.0,111.06796874999999,10.805,0.06300096875,32.16
2021-06-23 15:29:42.343750000,63.0,-6.0,4.0,111.061875,12.17,0.062880875,32.16
2021-06-23 15:29:42.351562500,63.0,-6.0,4.25,111.05578125,12.645,0.06276078125000001,32.16
2021-06-23 15:29:42.359375000,63.0,-6.0,4.5,111.0496875,13.12,0.0626406875,32.16
2021-06-23 15:29:42.367187500,63.0,-6.0,4.75,111.04359375,12.96,0.06252059375,32.16
2021-06-23 15:29:42.375000000,63.0,-6.0,5.0,111.0375,12.8,0.0624005,32.16
2021-06-23 15:29:42.382812500,63.0,-6.0,4.75,111.03140625,12.235,0.06228040625,32.16
2021-06-23 15:29:42.390625000,63.0,-6.0,4.5,111.0253125,11.67,0.0621603125,32.16
2021-06-23 15:29:42.398437500,63.0,-6.0,4.25,111.01921875,10.870000000000001,0.06204021875,32.16
2021-06-23 15:29:42.406250000,63.0,-6.0,4.0,111.013125,10.07,0.061920125,32.16
2021-06-23 15:29:42.414062500,63.0,-5.75,4.0,111.00703125,9.125,0.06180003125,32.16
2021-06-23 15:29:42.421875000,63.0,-5.5,4.0,111.00093749999999,8.18,0.0616799375,32.16
2021-06-23 15:29:42.429687500,63.0,-5.25,4.0,110.99484375,7.17,0.06155984375,32.16
2021-06-23 15:29:42.437500000,63.0,-5.0,4.0,110.98875,6.16,0.06143975,32.16
2021-06-23 15:29:42.445312500,63.0,-5.25,4.0,110.98265624999999,5.175000000000001,0.06131965625,32.16
2021-06-23 15:29:42.453125000,63.0,-5.5,4.0,110.9765625,4.19,0.0611995625,32.16
2021-06-23 15:29:42.460937500,63.0,-5.75,4.0,110.97046875,3.365,0.06107946875,32.16
2021-06-23 15:29:42.468750000,63.0,-6.0,4.0,110.964375,2.54,0.060959374999999996,32.16
2021-06-23 15:29:42.476562500,63.0,-6.0,4.0,110.95828125,1.995,0.06083928125,32.16
2021-06-23 15:29:42.484375000,63.0,-6.0,4.0,110.9521875,1.45,0.0607191875,32.16
2021-06-23 15:29:42.492187500,63.0,-6.0,4.0,110.94609375,1.28,0.06059909375,32.16
2021-06-23 15:29:42.500000000,63.0,-6.0,4.0,110.94,1.11,0.060479,32.16
2021-06-23 15:29:42.507812500,63.0,-6.0,4.0,110.93390624999999,1.31,0.06059909375,32.16
2021-06-23 15:29:42.515625000,63.0,-6.0,4.0,110.9278125,1.51,0.0607191875,32.16
2021-06-23 15:29:42.523437500,63.0,-6.0,4.0,110.92171875,1.98,0.06083928125,32.16
2021-06-23 15:29:42.531250000,63.0,-6.0,4.0,110.91562499999999,2.45,0.060959374999999996,32.16
2021-06-23 15:29:42.539062500,63.0,-5.75,4.0,110.90953125,2.995,0.06107946875,32.16
2021-06-23 15:29:42.546875000,63.0,-5.5,4.0,110.9034375,3.54,0.0611995625,32.16
2021-06-23 15:29:42.554687500,63.0,-5.25,4.0,110.89734375,3.93,0.06131965625,32.16
2021-06-23 15:29:42.562500000,63.0,-5.0,4.0,110.89125,4.32,0.06143975,32.16
2021-06-23 15:29:42.570312500,63.0,-5.25,4.0,110.88515625,4.345000000000001,0.06155984375,32.16
2021-06-23 15:29:42.578125000,63.0,-5.5,4.0,110.8790625,4.37,0.0616799375,32.16
2021-06-23 15:29:42.585937500,63.0,-5.75,4.0,110.87296875,3.885,0.06180003125,32.16
2021-06-23 15:29:42.593750000,63.0,-6.0,4.0,110.866875,3.4,0.061920125,32.16
2021-06-23 15:29:42.601562500,63.0,-5.75,4.0,110.86078125,2.3449999999999998,0.06204021875,32.16
2021-06-23 15:29:42.609375000,63.0,-5.5,4.0,110.8546875,1.29,0.0621603125,32.16
2021-06-23 15:29:42.617187500,63.0,-5.25,4.0,110.84859374999999,-0.29499999999999993,0.06228040625,32.16
2021-06-23 15:29:42.625000000,63.0,-5.0,4.0,110.8425,-1.88,0.0624005,32.16
2021-06-23 15:29:42.632812500,63.0,-5.0,4.0,110.83640625,-3.88,0.06252059375,32.16
2021-06-23 15:29:42.640625000,63.0,-5.0,4.0,110.83031249999999,-5.88,0.0626406875,32.16
2021-06-23 15:29:42.648437500,63.0,-5.0,4.0,110.82421875,-8.075,0.06276078125000001,32.16
2021-06-23 15:29:42.656250000,63.0,-5.0,4.0,110.818125,-10.27,0.062880875,32.16
2021-06-23 15:29:42.664062500,63.0,-5.0,4.25,110.81203125,-12.33,0.06300096875,32.16
2021-06-23 15:29:42.671875000,63.0,-5.0,4.5,110.8059375,-14.39,0.0631210625,32.16
2021-06-23 15:29:42.679687500,63.0,-5.0,4.75,110.79984375,-15.935,0.06324115625,32.16
2021-06-23 15:29:42.687500000,63.0,-5.0,5.0,110.79375,-17.48,0.06336125000000001,32.16
2021-06-23 15:29:42.695312500,63.0,-5.25,4.75,110.78765625,-18.095,0.06348134375,32.16
2021-06-23 15:29:42.703125000,63.0,-5.5,4.5,110.78156249999999,-18.71,0.0636014375,32.16
2021-06-23 15:29:42.710937500,63.0,-5.75,4.25,110.77546875,-18.125,0.06372153125,32.16
2021-06-23 15:29:42.718750000,63.0,-6.0,4.0,110.769375,-17.54,0.063841625,32.16
2021-06-23 15:29:42.726562500,63.0,-6.0,4.0,110.76328124999999,-15.719999999999999,0.06396171875000001,32.16
2021-06-23 15:29:42.734375000,63.0,-6.0,4.0,110.7571875,-13.9,0.0640818125,32.16
2021-06-23 15:29:42.742187500,63.0,-6.0,4.0,110.75109375,-11.105,0.06420190625000001,32.16
2021-06-23 15:29:42.750000000,63.0,-6.0,4.0,110.745,-8.31,0.064322,32.16
2021-06-23 15:29:42.757812500,63.0,-6.0,4.0,110.73890625,-5.035,0.06416184375,32.16
2021-06-23 15:29:42.765625000,63.0,-6.0,4.0,110.7328125,-1.76,0.0640016875,32.16
2021-06-23 15:29:42.773437500,63.0,-6.0,4.0,110.72671875,1.405,0.06384153125,32.16
2021-06-23 15:29:42.781250000,63.0,-6.0,4.0,110.720625,4.57,0.063681375,32.16
2021-06-23 15:29:42.789062500,63.0,-6.0,4.0,110.71453125,7.15,0.06352121875,32.16
2021-06-23 15:29:42.796875000,63.0,-6.0,4.0,110.7084375,9.73,0.06336106250000001,32.16
2021-06-23 15:29:42.804687500,63.0,-6.0,4.0,110.70234375,11.440000000000001,0.06320090625000001,32.16
2021-06-23 15:29:42.812500000,63.0,-6.0,4.0,110.69624999999999,13.15,0.06304075,32.16
2021-06-23 15:29:42.820312500,63.0,-6.0,4.0,110.69015625,13.98,0.06288059375,32.16
2021-06-23 15:29:42.828125000,63.0,-6.0,4.0,110.6840625,14.81,0.0627204375,32.16
2021-06-23 15:29:42.835937500,63.0,-6.0,4.0,110.67796874999999,14.895,0.06256028125,32.16
2021-06-23 15:29:42.843750000,63.0,-6.0,4.0,110.671875,14.98,0.062400125,32.16
2021-06-23 15:29:42.851562500,63.0,-5.75,4.25,110.66578125,14.530000000000001,0.06223996875,32.16
2021-06-23 15:29:42.859375000,63.0,-5.5,4.5,110.6596875,14.08,0.062079812500000005,32.16
2021-06-23 15:29:42.867187500,63.0,-5.25,4.75,110.65359375,13.295,0.06191965625,32.16
2021-06-23 15:29:42.875000000,63.0,-5.0,5.0,110.6475,12.51,0.0617595,32.16
2021-06-23 15:29:42.882812500,63.0,-5.25,5.0,110.64140625,11.559999999999999,0.06159934375,32.16
2021-06-23 15:29:42.890625000,63.0,-5.5,5.0,110.6353125,10.61,0.0614391875,32.16
2021-06-23 15:29:42.898437500,63.0,-5.75,5.0,110.62921874999999,9.64,0.061279031250000005,32.16
2021-06-23 15:29:42.906250000,63.0,-6.0,5.0,110.623125,8.67,0.061118875,32.16
2021-06-23 15:29:42.914062500,63.0,-6.0,4.75,110.61703125,7.8100000000000005,0.06095871875,32.16
2021-06-23 15:29:42.921875000,63.0,-6.0,4.5,110.61093749999999,6.95,0.0607985625,32.16
2021-06-23 15:29:42.929687500,63.0,-6.0,4.25,110.60484375,6.305,0.06063840625,32.16
2021-06-23 15:29:42.937500000,63.0,-6.0,4.0,110.59875,5.66,0.06047825,32.16
2021-06-23 15:29:42.945312500,63.0,-6.0,4.25,110.59265624999999,5.27,0.06031809375,32.16
2021-06-23 15:29:42.953125000,63.0,-6.0,4.5,110.5865625,4.88,0.0601579375,32.16
2021-06-23 15:29:42.960937500,63.0,-6.0,4.75,110.58046875,4.74,0.05999778125,32.16
2021-06-23 15:29:42.968750000,63.0,-6.0,5.0,110.574375,4.6,0.059837625,32.16
2021-06-23 15:29:42.976562500,63.0,-6.0,5.0,110.56828125,4.665,0.059677468750000004,32.16
2021-06-23 15:29:42.984375000,63.0,-6.0,5.0,110.5621875,4.73,0.0595173125,32.16
2021-06-23 15:29:42.992187500,63.0,-6.0,5.0,110.55609375,4.94,0.05935715625,32.16
2021-06-23 15:29:43.000000000,63.0,-6.0,5.0,110.55,5.15,0.059197,32.16
2021-06-23 15:29:43.007812500,63.0,-5.75,4.75,110.544140625,5.455,0.05927709375,32.1596875
2021-06-23 15:29:43.015625000,63.0,-5.5,4.5,110.53828125,5.76,0.0593571875,32.159375
2021-06-23 15:29:43.023437500,63.0,-5.25,4.25,110.532421875,6.109999999999999,0.05943728125,32.1590625
2021-06-23 15:29:43.031250000,63.0,-5.0,4.0,110.5265625,6.46,0.059517375,32.15875
2021-06-23 15:29:43.039062500,63.0,-5.0,4.25,110.520703125,6.765000000000001,0.05959746875,32.1584375
2021-06-23 15:29:43.046875000,63.0,-5.0,4.5,110.51484375,7.07,0.0596775625,32.158125
2021-06-23 15:29:43.054687500,63.0,-5.0,4.75,110.508984375,7.195,0.05975765625,32.1578125
2021-06-23 15:29:43.062500000,63.0,-5.0,5.0,110.503125,7.32,0.05983775,32.1575
2021-06-23 15:29:43.070312500,63.0,-5.25,5.0,110.497265625,7.085,0.05991784375,32.1571875
2021-06-23 15:29:43.078125000,63.0,-5.5,5.0,110.49140625,6.85,0.0599979375,32.156875
2021-06-23 15:29:43.085937500,63.0,-5.75,5.0,110.485546875,6.09,0.060078031250000004,32.1565625
2021-06-23 15:29:43.093750000,63.0,-6.0,5.0,110.4796875,5.33,0.060158125,32.15625
2021-06-23 15:29:43.101562500,63.0,-6.0,5.0,110.473828125,3.95,0.06023821875,32.1559375
2021-06-23 15:29:43.109375000,63.0,-6.0,5.0,110.46796875,2.57,0.0603183125,32.155625
2021-06-23 15:29:43.117187500,63.0,-6.0,5.0,110.462109375,0.645,0.06039840625,32.1553125
2021-06-23 15:29:43.125000000,63.0,-6.0,5.0,110.45625,-1.28,0.060478500000000004,32.155
2021-06-23 15:29:43.132812500,63.0,-6.0,5.0,110.450390625,-3.5300000000000002,0.06055859375,32.154687499999994
2021-06-23 15:29:43.140625000,63.0,-6.0,5.0,110.44453125,-5.78,0.0606386875,32.154374999999995
2021-06-23 15:29:43.148437500,63.0,-6.0,5.0,110.438671875,-7.949999999999999,0.06071878125,32.154062499999995
2021-06-23 15:29:43.156250000,63.0,-6.0,5.0,110.4328125,-10.12,0.060798875,32.153749999999995
2021-06-23 15:29:43.164062500,63.0,-6.0,5.0,110.426953125,-11.739999999999998,0.06087896875,32.153437499999995
2021-06-23 15:29:43.171875000,63.0,-6.0,5.0,110.42109375,-13.36,0.0609590625,32.153124999999996
2021-06-23 15:29:43.179687500,63.0,-6.0,5.0,110.415234375,-13.995000000000001,0.061039156250000004,32.152812499999996
2021-06-23 15:29:43.187500000,63.0,-6.0,5.0,110.409375,-14.63,0.06111925,32.152499999999996
2021-06-23 15:29:43.195312500,63.0,-6.0,5.0,110.403515625,-14.015,0.06119934375,32.1521875
2021-06-23 15:29:43.203125000,63.0,-6.0,5.0,110.39765625,-13.4,0.0612794375,32.151875
2021-06-23 15:29:43.210937500,63.0,-6.0,5.0,110.391796875,-11.555,0.06135953125,32.1515625
2021-06-23 15:29:43.218750000,63.0,-6.0,5.0,110.3859375,-9.71,0.061439625000000005,32.15125
2021-06-23 15:29:43.226562500,63.0,-6.0,4.75,110.380078125,-6.970000000000001,0.06151971875,32.1509375
2021-06-23 15:29:43.234375000,63.0,-6.0,4.5,110.37421875,-4.23,0.061599812500000004,32.150625
2021-06-23 15:29:43.242187500,63.0,-6.0,4.25,110.368359375,-1.1350000000000002,0.06167990625,32.1503125
2021-06-23 15:29:43.250000000,63.0,-6.0,4.0,110.3625,1.96,0.06176,32.15
2021-06-23 15:29:43.257812500,63.0,-6.0,4.25,110.356640625,4.79,0.06167990625,32.15
2021-06-23 15:29:43.265625000,63.0,-6.0,4.5,110.35078125,7.62,0.061599812500000004,32.15
2021-06-23 15:29:43.273437500,63.0,-6.0,4.75,110.344921875,9.7,0.06151971875,32.15
2021-06-23 15:29:43.281250000,63.0,-6.0,5.0,110.3390625,11.78,0.061439625000000005,32.15
2021-06-23 15:29:43.289062500,63.0,-5.75,5.0,110.333203125,12.85,0.06135953125,32.15
2021-06-23 15:29:43.296875000,63.0,-5.5,5.0,110.32734375,13.92,0.0612794375,32.15
2021-06-23 15:29:43.304687500,63.0,-5.25,5.0,110.321484375,13.99,0.06119934375,32.15
2021-06-23 15:29:43.312500000,63.0,-5.0,5.0,110.315625,14.06,0.06111925,32.15
2021-06-23 15:29:43.320312500,63.0,-5.25,4.75,110.309765625,13.34,0.061039156250000004,32.15
2021-06-23 15:29:43.328125000,63.0,-5.5,4.5,110.30390625,12.62,0.0609590625,32.15
2021-06-23 15:29:43.335937500,63.0,-5.75,4.25,110.298046875,11.37,0.06087896875,32.15
2021-06-23 15:29:43.343750000,63.0,-6.0,4.0,110.2921875,10.12,0.060798875,32.15
2021-06-23 15:29:43.351562500,63.0,-5.75,4.25,110.286328125,8.575,0.06071878125,32.15
2021-06-23 15:29:43.359375000,63.0,-5.5,4.5,110.28046875,7.03,0.0606386875,32.15
2021-06-23 15:29:43.367187500,63.0,-5.25,4.75,110.274609375,5.315,0.06055859375,32.15
2021-06-23 15:29:43.375000000,63.0,-5.0,5.0,110.26875,3.6,0.060478500000000004,32.15
2021-06-23 15:29:43.382812500,63.0,-5.25,4.75,110.262890625,1.805,0.06039840625,32.15
2021-06-23 15:29:43.390625000,63.0,-5.5,4.5,110.25703125,0.01,0.0603183125,32.15
2021-06-23 15:29:43.398437500,63.0,-5.75,4.25,110.251171875,-1.7599999999999998,0.06023821875,32.15
2021-06-23 15:29:43.406250000,63.0,-6.0,4.0,110.2453125,-3.53,0.060158125,32.15
2021-06-23 15:29:43.414062500,63.0,-6.0,4.0,110.239453125,-5.08,0.060078031250000004,32.15
2021-06-23 15:29:43.421875000,63.0,-6.0,4.0,110.23359375,-6.63,0.0599979375,32.15
2021-06-23 15:29:43.429687500,63.0,-6.0,4.0,110.227734375,-7.6850000000000005,0.05991784375,32.15
2021-06-23 15:29:43.437500000,63.0,-6.0,4.0,110.221875,-8.74,0.05983775,32.15
2021-06-23 15:29:43.445312500,63.0,-6.0,4.25,110.216015625,-9.025,0.05975765625,32.15
2021-06-23 15:29:43.453125000,63.0,-6.0,4.5,110.21015625,-9.31,0.0596775625,32.15
2021-06-23 15:29:43.460937500,63.0,-6.0,4.75,110.204296875,-8.690000000000001,0.05959746875,32.15
2021-06-23 15:29:43.468750000,63.0,-6.0,5.0,110.1984375,-8.07,0.059517375,32.15
2021-06-23 15:29:43.476562500,63.0,-6.0,4.75,110.192578125,-6.61,0.05943728125,32.15
2021-06-23 15:29:43.484375000,63.0,-6.0,4.5,110.18671875,-5.15,0.0593571875,32.15
2021-06-23 15:29:43.492187500,63.0,-6.0,4.25,110.180859375,-3.1500000000000004,0.05927709375,32.15
2021-06-23 15:29:43.500000000,63.0,-6.0,4.0,110.175,-1.15,0.059197,32.15
2021-06-23 15:29:43.507812500,63.0,-6.0,4.0,110.169140625,0.9300000000000002,0.0592370625,32.15
2021-06-23 15:29:43.515625000,63.0,-6.0,4.0,110.16328125,3.01,0.059277125,32.15
2021-06-23 15:29:43.523437500,63.0,-6.0,4.0,110.157421875,4.72,0.0593171875,32.15
2021-06-23 15:29:43.531250000,63.0,-6.0,4.0,110.1515625,6.43,0.05935725,32.15
2021-06-23 15:29:43.539062500,63.0,-6.0,4.25,110.145703125,7.405,0.0593973125,32.15
2021-06-23 15:29:43.546875000,63.0,-6.0,4.5,110.13984375,8.38,0.059437375,32.15
2021-06-23 15:29:43.554687500,63.0,-6.0,4.75,110.133984375,8.43,0.0594774375,32.15
2021-06-23 15:29:43.562500000,63.0,-6.0,5.0,110.128125,8.48,0.0595175,32.15
2021-06-23 15:29:43.570312500,63.0,-6.0,5.0,110.122265625,7.54,0.0595575625,32.15
2021-06-23 15:29:43.578125000,63.0,-6.0,5.0,110.11640625,6.6,0.059597625,32.15
2021-06-23 15:29:43.585937500,63.0,-6.0,5.0,110.110546875,4.745,0.0596376875,32.15
2021-06-23 15:29:43.593750000,63.0,-6.0,5.0,110.1046875,2.89,0.05967775,32.15
2021-06-23 15:29:43.601562500,63.0,-5.75,5.0,110.098828125,0.2950000000000004,0.0597178125,32.15
2021-06-23 15:29:43.609375000,63.0,-5.5,5.0,110.09296875,-2.3,0.059757875,32.15
2021-06-23 15:29:43.617187500,63.0,-5.25,5.0,110.087109375,-5.279999999999999,0.0597979375,32.15
2021-06-23 15:29:43.625000000,63.0,-5.0,5.0,110.08125,-8.26,0.059838,32.15
2021-06-23 15:29:43.632812500,63.0,-5.25,5.0,110.075390625,-11.105,0.059878062499999996,32.15
2021-06-23 15:29:43.640625000,63.0,-5.5,5.0,110.06953125,-13.95,0.059918124999999996,32.15
2021-06-23 15:29:43.648437500,63.0,-5.75,5.0,110.063671875,-16.07,0.059958187499999996,32.15
2021-06-23 15:29:43.656250000,63.0,-6.0,5.0,110.0578125,-18.19,0.059998249999999996,32.15
2021-06-23 15:29:43.664062500,63.0,-6.0,5.0,110.051953125,-19.055,0.060038312499999996,32.15
2021-06-23 15:29:43.671875000,63.0,-6.0,5.0,110.04609375,-19.92,0.060078374999999996,32.15
2021-06-23 15:29:43.679687500,63.0,-6.0,5.0,110.040234375,-19.275,0.0601184375,32.15
2021-06-23 15:29:43.687500000,63.0,-6.0,5.0,110.034375,-18.63,0.0601585,32.15
2021-06-23 15:29:43.695312500,63.0,-6.0,4.75,110.028515625,-16.63,0.0601985625,32.15
2021-06-23 15:29:43.703125000,63.0,-6.0,4.5,110.02265625,-14.63,0.060238625,32.15
2021-06-23 15:29:43.710937500,63.0,-6.0,4.25,110.016796875,-11.760000000000002,0.0602786875,32.15
2021-06-23 15:29:43.718750000,63.0,-6.0,4.0,110.0109375,-8.89,0.06031875,32.15
2021-06-23 15:29:43.726562500,63.0,-5.75,4.25,110.005078125,-5.84,0.0603588125,32.15
2021-06-23 15:29:43.734375000,63.0,-5.5,4.5,109.99921875,-2.79,0.060398875,32.15
2021-06-23 15:29:43.742187500,63.0,-5.25,4.75,109.993359375,-0.16999999999999993,0.0604389375,32.15
